"Time (s)","Acceleration x (m/s^2)","Acceleration y (m/s^2)","Acceleration z (m/s^2)"
1.187275900E-2,1.909500062E-1,9.091050148E0,3.577050209E0
1.437900300E-2,2.419500053E-1,9.256050110E0,3.430950165E0
1.688600800E-2,1.789500117E-1,9.313050270E0,3.265050173E0
1.939377700E-2,1.120500043E-1,9.342000008E0,3.114000082E0
2.190086800E-2,2.895000204E-2,9.535950661E0,2.959050179E0
2.440725300E-2,-5.205000192E-2,9.754050255E0,2.808000088E0
2.691433000E-2,-1.000500023E-1,9.912000656E0,2.502000093E0
2.942211800E-2,-5.700000376E-2,9.988950729E0,2.133000135E0
3.192919700E-2,-4.050000105E-3,9.868950844E0,1.939050078E0
3.443559000E-2,3.600000218E-2,9.547950745E0,1.869000077E0
3.694243400E-2,1.200000048E-1,9.250950813E0,1.903050065E0
3.945035800E-2,2.419500053E-1,9.220050812E0,2.116050005E0
4.195743600E-2,2.659500241E-1,9.229950905E0,2.353049994E0
4.446366700E-2,1.890000105E-1,9.249000549E0,2.515950203E0
4.697074200E-2,1.120500043E-1,9.289950371E0,2.683050156E0
4.947866500E-2,-3.795000166E-2,9.313050270E0,3.013950109E0
5.198574400E-2,-1.980000138E-1,9.258000374E0,3.390000105E0
5.449189800E-2,-3.420000076E-1,9.220050812E0,3.667950153E0
5.699897300E-2,-3.540000021E-1,9.325050354E0,3.771000147E0
5.950674200E-2,-3.390000165E-1,9.547950745E0,3.763050079E0
6.201382100E-2,-2.479500175E-1,9.655950546E0,3.595950127E0
6.451997500E-2,-9.705000371E-2,9.622050285E0,3.186000109E0
6.702705000E-2,9.600000083E-2,9.526950836E0,2.739000082E0
6.953497300E-2,2.730000019E-1,9.373050690E0,2.551950216E0
7.204205200E-2,4.210500121E-1,9.202950478E0,2.320050001E0
7.454828300E-2,4.980000257E-1,9.079050064E0,2.062950134E0
7.705527600E-2,4.789500237E-1,9.187050819E0,1.840950131E0
7.956327600E-2,3.900000155E-1,9.454950333E0,1.812000036E0
8.207012400E-2,2.299500108E-1,9.631950378E0,1.951050043E0
8.457650900E-2,-1.605000161E-2,9.531000137E0,2.170950174E0
8.708357800E-2,-2.650500238E-1,9.406949997E0,2.536950111E0
8.959134800E-2,-3.660000265E-1,9.414000511E0,2.937000036E0
9.209842700E-2,-4.090500176E-1,9.577050209E0,3.265050173E0
9.460459400E-2,-3.750000298E-1,9.703950882E0,3.426000118E0
9.711190000E-2,-2.670000196E-1,9.703950882E0,3.519000053E0
9.961959200E-2,-1.090500057E-1,9.522000313E0,3.475950241E0
1.021267430E-1,7.200000435E-2,9.265950203E0,3.379950047E0
1.046328970E-1,2.149500102E-1,9.127050400E0,3.217050076E0
1.071398950E-1,3.570000231E-1,9.064050674E0,3.114000082E0
1.096478950E-1,3.690000176E-1,9.025950432E0,2.899050236E0
1.121549740E-1,2.970000207E-1,9.120000839E0,2.575950146E0
1.146611280E-1,1.600500047E-1,9.391950607E0,2.344050169E0
1.171682120E-1,-1.950000064E-3,9.555000305E0,2.311950207E0
1.196759810E-1,-1.980000138E-1,9.450000763E0,2.293050051E0
1.221830600E-1,-3.319500089E-1,9.390000343E0,2.338950157E0
1.246894450E-1,-3.510000110E-1,9.559950829E0,2.499000072E0
1.271962890E-1,-2.599500120E-1,9.766050339E0,2.656950235E0
1.297042120E-1,-1.309500039E-1,9.888000488E0,2.739000082E0
1.322112910E-1,1.200000010E-2,9.792000771E0,2.748000145E0
1.347175320E-1,1.770000011E-1,9.559950829E0,2.773950100E0
1.372246070E-1,3.229500055E-1,9.289950371E0,2.881950140E0
1.397325300E-1,4.279500246E-1,9.109950066E0,2.929950237E0
1.422396330E-1,4.380000234E-1,9.045000076E0,2.977950096E0
1.447457860E-1,3.130500019E-1,9.007050514E0,2.928000212E0
1.472528610E-1,1.410000026E-1,9.081000328E0,2.857950211E0
1.497606310E-1,-6.405000389E-2,9.256050110E0,2.844000101E0
1.522677100E-1,-2.939999998E-1,9.330000877E0,2.851050138E0
1.547738630E-1,-4.849500358E-1,9.250950813E0,2.953950167E0
1.572809520E-1,-5.190000534E-1,9.289950371E0,3.000000238E0
1.597888750E-1,-4.420500100E-1,9.567000389E0,3.016050100E0
1.622959540E-1,-2.770500183E-1,9.807000160E0,2.949000120E0
1.648021850E-1,-6.599999964E-2,9.864000320E0,2.812950134E0
1.673091830E-1,1.390500069E-1,9.772950172E0,2.599950075E0
1.698171830E-1,3.450000286E-1,9.567000389E0,2.485050201E0
1.723242560E-1,4.879500270E-1,9.382950783E0,2.499000072E0
1.748304100E-1,5.430000424E-1,9.189000130E0,2.473050117E0
1.773374850E-1,4.429500103E-1,9.096000671E0,2.391000032E0
1.798452350E-1,2.749500275E-1,9.169950485E0,2.367000103E0
1.823523140E-1,2.400000021E-2,9.316050529E0,2.506050110E0
1.848586990E-1,-2.100000083E-1,9.378000259E0,2.679000139E0
1.873657700E-1,-4.210500121E-1,9.270000458E0,2.856000185E0
1.898735390E-1,-5.790000558E-1,9.199050903E0,3.117000103E0
1.923805410E-1,-5.500500202E-1,9.346950531E0,3.313050270E0
1.948867720E-1,-4.249500334E-1,9.534000397E0,3.358950138E0
1.973938460E-1,-2.029500157E-1,9.697050095E0,3.289050102E0
1.999017700E-1,5.700000376E-2,9.748950005E0,3.220050097E0
2.024088480E-1,2.820000052E-1,9.667950630E0,3.013950109E0
2.049149970E-1,4.450500309E-1,9.466950417E0,2.806050062E0
2.074220720E-1,5.550000072E-1,9.241950035E0,2.599950075E0
2.099298420E-1,5.460000038E-1,9.097949982E0,2.431950092E0
2.124369200E-1,4.020000100E-1,9.028950691E0,2.260050058E0
2.149433190E-1,1.770000011E-1,9.145950317E0,2.092050076E0
2.174501630E-1,-4.695000127E-2,9.390000343E0,2.152050018E0
2.199580860E-1,-2.430000156E-1,9.462000847E0,2.358000040E0
2.224651650E-1,-4.849500358E-1,9.376049995E0,2.604000092E0
2.249713960E-1,-5.190000534E-1,9.342000008E0,2.851050138E0
2.274784710E-1,-4.660500288E-1,9.526950836E0,3.079050064E0
2.299863940E-1,-3.180000186E-1,9.699000359E0,3.280050039E0
2.324934730E-1,-1.140000075E-1,9.747000694E0,3.358950138E0
2.349996270E-1,1.030500084E-1,9.651000023E0,3.283950090E0
2.375067020E-1,2.800500095E-1,9.495000839E0,3.210000038E0
2.400144710E-1,4.020000100E-1,9.298950195E0,3.145950079E0
2.425215500E-1,4.830000103E-1,9.184050560E0,2.968050241E0
2.450277040E-1,4.330500066E-1,9.130949974E0,2.772000074E0
2.475350090E-1,2.730000019E-1,9.121950150E0,2.551950216E0
2.500427840E-1,3.299999982E-2,9.241950035E0,2.358000040E0
2.525498630E-1,-1.720500141E-1,9.412050247E0,2.320050001E0
2.550560160E-1,-3.559500277E-1,9.438000679E0,2.413050175E0
2.575630910E-1,-4.969500303E-1,9.361050606E0,2.571000099E0
2.600710280E-1,-4.609500170E-1,9.415950775E0,2.715000153E0
2.625781070E-1,-3.490500152E-1,9.613050461E0,2.815050125E0
2.650842610E-1,-1.240500063E-1,9.819000244E0,2.940000057E0
2.675913310E-1,1.120500043E-1,9.807000160E0,2.937000036E0
2.700991000E-1,2.970000207E-1,9.615000725E0,2.845950127E0
2.726061790E-1,4.090500176E-1,9.403950691E0,2.857950211E0
2.751125690E-1,4.740000367E-1,9.205950737E0,2.913000107E0
2.776196440E-1,4.309500158E-1,9.060000420E0,2.863050222E0
2.801274130E-1,3.180000186E-1,8.977950096E0,2.755050182E0
2.826344150E-1,8.595000207E-2,9.055050850E0,2.644950151E0
2.851406650E-1,-1.170000061E-1,9.258000374E0,2.632950068E0
2.876477400E-1,-3.270000219E-1,9.373050690E0,2.715000153E0
2.901556630E-1,-4.710000157E-1,9.306000710E0,2.776950121E0
2.926627470E-1,-5.070000291E-1,9.313050270E0,2.929950237E0
2.951689010E-1,-3.970500231E-1,9.487950325E0,3.034950256E0
2.976759760E-1,-2.290500104E-1,9.720000267E0,3.004050255E0
3.001837450E-1,-9.000000544E-3,9.889950752E0,2.959050179E0
3.026908240E-1,2.340000123E-1,9.838050842E0,2.868000031E0
3.051972080E-1,4.020000100E-1,9.625050545E0,2.751000166E0
3.077040380E-1,4.639500082E-1,9.397050858E0,2.659950018E0
3.102119610E-1,4.999500215E-1,9.270000458E0,2.599950075E0
3.127191170E-1,4.159500301E-1,9.187050819E0,2.578050137E0
3.152252750E-1,2.200500071E-1,9.129000664E0,2.499000072E0
3.177323500E-1,-4.050000105E-3,9.190950394E0,2.407950163E0
3.202402730E-1,-2.190000117E-1,9.346950531E0,2.524950027E0
3.227473190E-1,-4.450500309E-1,9.358950615E0,2.763000250E0
3.252534730E-1,-5.449500084E-1,9.238950729E0,2.944050074E0
3.277605480E-1,-5.449500084E-1,9.330000877E0,3.150000095E0
3.302683220E-1,-3.799500167E-1,9.565050125E0,3.262950182E0
3.327754010E-1,-1.669500023E-1,9.712950706E0,3.271950245E0
3.352817860E-1,6.900000572E-2,9.756000519E0,3.189000130E0
3.377888610E-1,3.210000098E-1,9.699000359E0,3.022950172E0
3.402966350E-1,4.639500082E-1,9.550050735E0,2.913000107E0
3.428037140E-1,5.340000391E-1,9.330000877E0,2.796000242E0
3.453098680E-1,5.389500260E-1,9.177000046E0,2.608950138E0
3.478169430E-1,4.309500158E-1,9.061950684E0,2.398950100E0
3.503248660E-1,2.080500126E-1,9.096000671E0,2.250000000E0
3.528319450E-1,0.000000000E0,9.262950897E0,2.205000162E0
3.553380990E-1,-2.100000083E-1,9.445050240E0,2.293050051E0
3.578451740E-1,-4.110000134E-1,9.391950607E0,2.524950027E0
3.603529430E-1,-5.260500312E-1,9.304050446E0,2.820000172E0
3.628600220E-1,-4.729500115E-1,9.427950859E0,2.992050171E0
3.653664060E-1,-3.150000274E-1,9.700950623E0,3.118950129E0
3.678734810E-1,-1.240500063E-1,9.838050842E0,3.220050097E0
3.703812510E-1,1.030500084E-1,9.703950882E0,3.220050097E0
3.728882530E-1,2.490000129E-1,9.473999977E0,3.070950031E0
3.753944830E-1,3.880500197E-1,9.333000183E0,2.992050171E0
3.779015580E-1,4.450500309E-1,9.225000381E0,2.941950083E0
3.804094810E-1,3.780000210E-1,9.085950851E0,2.773950100E0
3.829165600E-1,2.389500141E-1,9.032999992E0,2.571000099E0
3.854227910E-1,5.205000192E-2,9.201000214E0,2.437050104E0
3.879297890E-1,-1.399500072E-1,9.462000847E0,2.434050083E0
3.904377890E-1,-3.420000076E-1,9.481050491E0,2.503950119E0
3.929446470E-1,-4.729500115E-1,9.306000710E0,2.560950041E0
3.954508010E-1,-4.470000267E-1,9.342000008E0,2.788950205E0
3.979581070E-1,-3.250500262E-1,9.589050293E0,2.953950167E0
4.004657990E-1,-9.705000371E-2,9.792000771E0,2.965950251E0
4.029729590E-1,9.600000083E-2,9.843000412E0,2.985000134E0
4.054791130E-1,3.180000186E-1,9.718050003E0,2.911050081E0
4.079861880E-1,4.240500331E-1,9.531000137E0,2.836950064E0
4.104941310E-1,4.759500325E-1,9.340050697E0,2.776950121E0
4.130012100E-1,4.879500270E-1,9.193950653E0,2.755050182E0
4.155074400E-1,3.709500134E-1,9.031050682E0,2.728950024E0
4.180144380E-1,1.410000026E-1,9.009000778E0,2.604000092E0
4.205222080E-1,-8.100000024E-2,9.141000748E0,2.449050188E0
4.230292720E-1,-2.629500031E-1,9.358950615E0,2.536950111E0
4.255356560E-1,-4.489500225E-1,9.346950531E0,2.740950108E0
4.280427310E-1,-5.190000534E-1,9.246000290E0,2.877000093E0
4.305505050E-1,-4.519500136E-1,9.402000427E0,3.046950102E0
4.330575840E-1,-3.130500019E-1,9.685050011E0,3.105000257E0
4.355637380E-1,-7.304999977E-2,9.838050842E0,3.091050148E0
4.380708130E-1,1.200000048E-1,9.795000076E0,2.973000050E0
4.405787360E-1,3.040500283E-1,9.685050011E0,2.824950218E0
4.430858150E-1,4.159500301E-1,9.463950157E0,2.794050217E0
4.455919690E-1,4.789500237E-1,9.277950287E0,2.724000216E0
4.480990440E-1,4.639500082E-1,9.181950569E0,2.628000021E0
4.506070440E-1,3.040500283E-1,9.124050140E0,2.487000227E0
4.531138920E-1,7.905000448E-2,9.157950401E0,2.374950171E0
4.556202770E-1,-1.549500078E-1,9.310950279E0,2.365050077E0
4.581271210E-1,-3.220500052E-1,9.414000511E0,2.509050131E0
4.606351210E-1,-4.759500325E-1,9.340050697E0,2.716950178E0
4.631421230E-1,-5.160000324E-1,9.286950111E0,2.956050158E0
4.656483540E-1,-4.090500176E-1,9.454950333E0,3.105000257E0
4.681554290E-1,-2.149500102E-1,9.682050705E0,3.160050154E0
4.706633520E-1,7.050000131E-3,9.819000244E0,3.205050230E0
4.731704500E-1,2.389500141E-1,9.772950172E0,3.091050148E0
4.756766800E-1,3.730500042E-1,9.534000397E0,2.875050068E0
4.781837550E-1,4.810500145E-1,9.310950279E0,2.808000088E0
4.806916780E-1,5.119500160E-1,9.157950401E0,2.763000250E0
4.831985320E-1,4.279500246E-1,9.060000420E0,2.571000099E0
4.857049160E-1,2.560500205E-1,9.060000420E0,2.334000111E0
4.882119910E-1,2.100000158E-2,9.232050896E0,2.275950193E0
4.907197600E-1,-1.840500087E-1,9.391950607E0,2.406000137E0
4.932268440E-1,-3.870000243E-1,9.385050774E0,2.557050228E0
4.957329980E-1,-5.089499950E-1,9.292050362E0,2.715000153E0
4.982400730E-1,-4.879500270E-1,9.397050858E0,2.949000120E0
5.007479960E-1,-3.460500240E-1,9.618000031E0,3.079050064E0
5.032550750E-1,-1.279500127E-1,9.811050415E0,3.145950079E0
5.057613060E-1,6.705000252E-2,9.855000496E0,3.181950092E0
5.082683040E-1,2.389500141E-1,9.694050789E0,3.105000257E0
5.107763040E-1,3.420000076E-1,9.438000679E0,2.947050095E0
5.132831600E-1,4.120500088E-1,9.222000122E0,2.812950134E0
5.157895450E-1,4.069500268E-1,9.120000839E0,2.712000132E0
5.182966200E-1,2.869500220E-1,9.084000587E0,2.626050234E0
5.208043890E-1,1.030500084E-1,9.091050148E0,2.449050188E0
5.233114830E-1,-7.605000585E-2,9.297000885E0,2.383949995E0
5.258176370E-1,-2.629500031E-1,9.450000763E0,2.509050131E0
5.283247110E-1,-4.090500176E-1,9.373050690E0,2.632950068E0
5.308326350E-1,-4.879500270E-1,9.292050362E0,2.728950024E0
5.333397140E-1,-3.919500113E-1,9.439949989E0,2.892000198E0
5.358459440E-1,-2.550000250E-1,9.682050705E0,3.012000084E0
5.383530190E-1,-4.905000329E-2,9.828000069E0,3.097950220E0
5.408609420E-1,1.699500084E-1,9.796950340E0,3.001950026E0
5.433680210E-1,3.400500119E-1,9.579000473E0,2.940000057E0
5.458741750E-1,4.090500176E-1,9.325050354E0,2.848950148E0
5.483812500E-1,4.600500166E-1,9.163050652E0,2.763000250E0
5.508890190E-1,4.450500309E-1,9.112050056E0,2.664000034E0
5.533960740E-1,3.130500019E-1,9.120000839E0,2.581050158E0
5.559022280E-1,4.800000042E-2,9.145950317E0,2.497050047E0
5.584093030E-1,-1.480500102E-1,9.289950371E0,2.506050110E0
5.609172260E-1,-3.199500144E-1,9.376049995E0,2.602050066E0
5.634242720E-1,-4.900500178E-1,9.340050697E0,2.791050196E0
5.659305030E-1,-4.729500115E-1,9.403950691E0,2.929950237E0
5.684375780E-1,-3.679500222E-1,9.583950043E0,3.022950172E0
5.709455010E-1,-1.960500032E-1,9.756000519E0,3.114000082E0
5.734525610E-1,5.205000192E-2,9.819000244E0,3.124050140E0
5.759587150E-1,2.220000178E-1,9.742050171E0,2.961000204E0
5.784657890E-1,3.880500197E-1,9.498000145E0,2.784000158E0
5.809735590E-1,4.450500309E-1,9.270000458E0,2.728950024E0
5.834806380E-1,4.399500191E-1,9.153000832E0,2.674050093E0
5.859867760E-1,3.570000231E-1,9.129000664E0,2.542050123E0
5.884938510E-1,1.459500045E-1,9.190950394E0,2.431950092E0
5.910017740E-1,-6.900000572E-2,9.333000183E0,2.427000046E0
5.935088530E-1,-3.220500052E-1,9.366000175E0,2.536950111E0
5.960150790E-1,-4.710000157E-1,9.258000374E0,2.626050234E0
5.985221540E-1,-5.550000072E-1,9.250950813E0,2.791050196E0
6.010300770E-1,-4.780500233E-1,9.402000427E0,3.000000238E0
6.035369110E-1,-2.749500275E-1,9.619950294E0,3.112050056E0
6.060432960E-1,-4.905000329E-2,9.790050507E0,3.142950058E0
6.085503710E-1,1.909500062E-1,9.844950676E0,3.153000116E0
6.110581250E-1,3.970500231E-1,9.675000191E0,2.988000154E0
6.135652040E-1,4.549500346E-1,9.402000427E0,2.821950197E0
6.160715890E-1,5.119500160E-1,9.151050568E0,2.676000118E0
6.185784140E-1,4.620000124E-1,9.055050850E0,2.571000099E0
6.210864140E-1,2.920500040E-1,9.037950516E0,2.454000235E0
6.235934160E-1,8.400000632E-2,9.112050056E0,2.353049994E0
6.260996180E-1,-1.210500076E-1,9.298950195E0,2.403000116E0
6.286066930E-1,-3.300000131E-1,9.402000427E0,2.581050158E0
6.311146160E-1,-4.830000103E-1,9.345000267E0,2.728950024E0
6.336217000E-1,-5.070000291E-1,9.366000175E0,2.833950043E0
6.361278530E-1,-3.919500113E-1,9.538950920E0,3.025950193E0
6.386349280E-1,-2.310000062E-1,9.756000519E0,3.174000263E0
6.411427080E-1,-1.605000161E-2,9.828000069E0,3.226950169E0
6.436497870E-1,2.059500068E-1,9.744000435E0,3.106950045E0
6.461559400E-1,3.490500152E-1,9.565050125E0,3.007050037E0
6.486630150E-1,4.189500213E-1,9.340050697E0,2.889000177E0
6.511709380E-1,4.330500066E-1,9.169950485E0,2.692950010E0
6.536780170E-1,3.349500299E-1,9.096000671E0,2.595000029E0
6.561842480E-1,1.669500023E-1,9.112050056E0,2.527950048E0
6.586913230E-1,-3.795000166E-2,9.246000290E0,2.455950022E0
6.611992460E-1,-2.389500141E-1,9.454950333E0,2.491950035E0
6.637063250E-1,-3.970500231E-1,9.450000763E0,2.584950209E0
6.662129540E-1,-5.089499950E-1,9.325050354E0,2.722050190E0
6.687197310E-1,-4.660500288E-1,9.349050522E0,2.848950148E0
6.712273230E-1,-2.980500162E-1,9.547950745E0,2.937000036E0
6.737344020E-1,-7.304999977E-2,9.782999992E0,3.073950052E0
6.762407870E-1,1.459500045E-1,9.814050674E0,3.097950220E0
6.787476210E-1,3.229500055E-1,9.613050461E0,2.956050158E0
6.812556210E-1,4.429500103E-1,9.418950081E0,2.818050146E0
6.837626230E-1,4.909500182E-1,9.196050644E0,2.776950121E0
6.862688440E-1,4.380000234E-1,9.079050064E0,2.703000069E0
6.887758420E-1,2.939999998E-1,9.007050514E0,2.551950216E0
6.912838420E-1,9.300000221E-2,9.136050224E0,2.455950022E0
6.937906760E-1,-1.260000020E-1,9.318000793E0,2.511000156E0
6.962970600E-1,-3.079500198E-1,9.378000259E0,2.619000196E0
6.988041350E-1,-4.830000103E-1,9.277950287E0,2.683050156E0
7.013119050E-1,-4.900500178E-1,9.325050354E0,2.869950056E0
7.038189830E-1,-3.940500319E-1,9.529050827E0,3.028050184E0
7.063253680E-1,-2.340000123E-1,9.679950714E0,3.064050198E0
7.088322210E-1,-1.950000064E-3,9.804000854E0,3.073950052E0
7.113402210E-1,2.389500141E-1,9.782999992E0,3.046950102E0
7.138472230E-1,3.900000155E-1,9.634050369E0,2.956050158E0
7.163534540E-1,4.360500276E-1,9.378000259E0,2.800950050E0
7.188605580E-1,4.620000124E-1,9.205950737E0,2.671950102E0
7.213684810E-1,3.949500322E-1,9.163050652E0,2.604000092E0
7.238755600E-1,1.870500147E-1,9.109950066E0,2.524950027E0
7.263817290E-1,-5.700000376E-2,9.172050476E0,2.425050020E0
7.288888040E-1,-2.460000068E-1,9.322950363E0,2.503950119E0
7.313965730E-1,-4.110000134E-1,9.370950699E0,2.671950102E0
7.339036610E-1,-4.879500270E-1,9.349050522E0,2.794050217E0
7.364098150E-1,-4.729500115E-1,9.424050331E0,2.928000212E0
7.389171200E-1,-3.180000186E-1,9.541050911E0,3.064050198E0
7.414248130E-1,-1.210500076E-1,9.691950798E0,3.172050238E0
7.439319690E-1,1.290000081E-1,9.763950348E0,3.153000116E0
7.464381220E-1,3.490500152E-1,9.718050003E0,2.988000154E0
7.489451970E-1,4.860000312E-1,9.579000473E0,2.908950090E0
7.514531200E-1,5.029500127E-1,9.282000542E0,2.764950037E0
7.539601990E-1,4.710000157E-1,9.055050850E0,2.602050066E0
7.564663530E-1,3.640500307E-1,9.009000778E0,2.442000151E0
7.589734190E-1,1.750500053E-1,9.112050056E0,2.355000019E0
7.614814190E-1,-4.695000127E-2,9.274950027E0,2.362950087E0
7.639882670E-1,-2.629500031E-1,9.381000519E0,2.427000046E0
7.664946800E-1,-4.420500100E-1,9.415950775E0,2.595000029E0
7.690017550E-1,-5.279999971E-1,9.369000435E0,2.779050112E0
7.715095240E-1,-4.849500358E-1,9.406949997E0,2.935050249E0
7.740166130E-1,-3.340500295E-1,9.570000648E0,3.081000090E0
7.765227670E-1,-1.000500023E-1,9.751950264E0,3.190950155E0
7.790298420E-1,1.530000120E-1,9.748950005E0,3.172050238E0
7.815377840E-1,3.490500152E-1,9.622050285E0,3.028050184E0
7.840448630E-1,4.549500346E-1,9.427950859E0,2.949000120E0
7.865510170E-1,4.909500182E-1,9.256050110E0,2.868000031E0
7.890580920E-1,4.309500158E-1,9.133950233E0,2.679000139E0
7.915658610E-1,2.610000074E-1,9.055050850E0,2.425050020E0
7.940729400E-1,2.595000155E-2,9.115050316E0,2.341050148E0
7.965792950E-1,-1.930500120E-1,9.400050163E0,2.446050167E0
7.990861400E-1,-3.460500240E-1,9.559950829E0,2.604000092E0
8.015941400E-1,-4.950000346E-1,9.490950584E0,2.728950024E0
8.041011470E-1,-4.570500255E-1,9.451950073E0,2.953950167E0
8.066073770E-1,-3.580500185E-1,9.454950333E0,2.961000204E0
8.091144520E-1,-1.450500041E-1,9.567000389E0,2.865000248E0
8.116223750E-1,9.300000221E-2,9.711000443E0,2.856000185E0
8.141294540E-1,3.330000043E-1,9.759000778E0,2.889000177E0
8.166356080E-1,4.879500270E-1,9.711000443E0,2.971050024E0
8.191426830E-1,5.389500260E-1,9.505050659E0,2.949000120E0
8.216504520E-1,4.950000346E-1,9.250950813E0,2.842050076E0
8.241577620E-1,3.349500299E-1,9.024000168E0,2.679000139E0
8.266639160E-1,8.100000024E-2,8.875050545E0,2.367000103E0
8.291709910E-1,-1.279500127E-1,9.032999992E0,2.200050116E0
8.316786830E-1,-2.820000052E-1,9.346950531E0,2.379000187E0
8.341858390E-1,-4.129500091E-1,9.486000061E0,2.782050133E0
8.366920030E-1,-4.590000212E-1,9.400050163E0,3.094950199E0
8.391990780E-1,-4.350000322E-1,9.409049988E0,3.178950071E0
8.417070010E-1,-2.869500220E-1,9.589050293E0,3.126000166E0
8.442140800E-1,-9.000000358E-2,9.751950264E0,2.980050087E0
8.467203110E-1,1.339500099E-1,9.787950516E0,2.863050222E0
8.492273090E-1,3.330000043E-1,9.687000275E0,2.875050068E0
8.517353090E-1,4.429500103E-1,9.478950500E0,3.028050184E0
8.542421710E-1,4.980000257E-1,9.298950195E0,3.019050121E0
8.567485550E-1,4.380000234E-1,9.211050034E0,2.743050098E0
8.592556300E-1,3.060000241E-1,9.172050476E0,2.394000053E0
8.617633900E-1,2.595000155E-2,9.196050644E0,2.166000128E0
8.642704680E-1,-1.789500117E-1,9.294000626E0,2.185050011E0
8.667766220E-1,-3.679500222E-1,9.342000008E0,2.473050117E0
8.692836970E-1,-4.849500358E-1,9.292050362E0,2.851050138E0
8.717916200E-1,-4.710000157E-1,9.330000877E0,3.105000257E0
8.742986990E-1,-3.750000298E-1,9.526950836E0,3.121950150E0
8.768049300E-1,-1.840500087E-1,9.715950012E0,3.013950109E0
8.793119280E-1,1.395000052E-2,9.799950600E0,2.976000071E0
8.818199280E-1,2.490000129E-1,9.732000351E0,2.973000050E0
8.843267760E-1,4.210500121E-1,9.541050911E0,2.949000120E0
8.868331610E-1,4.950000346E-1,9.345000267E0,3.016050100E0
8.893402360E-1,4.980000257E-1,9.142950058E0,2.889000177E0
8.918480050E-1,3.919500113E-1,8.997000694E0,2.569050074E0
8.943550070E-1,1.819500029E-1,9.048000336E0,2.274000168E0
8.968612380E-1,-1.095000096E-2,9.265950203E0,2.213999987E0
8.993683130E-1,-2.050500065E-1,9.385050774E0,2.403000116E0
9.018762360E-1,-3.769500256E-1,9.316050529E0,2.631000042E0
9.043833150E-1,-4.830000103E-1,9.225000381E0,2.839050055E0
9.068895450E-1,-4.369500279E-1,9.364050865E0,3.000000238E0
9.093966110E-1,-2.820000052E-1,9.640950203E0,3.019050121E0
9.119045340E-1,-9.300000221E-2,9.835050583E0,2.997000217E0
9.144116130E-1,1.150500029E-1,9.871050835E0,3.025950193E0
9.169177670E-1,2.779500186E-1,9.670050621E0,3.070950031E0
9.194248420E-1,3.760500252E-1,9.415950775E0,3.033000231E0
9.219326110E-1,4.260000288E-1,9.208050728E0,2.860950232E0
9.244396750E-1,4.069500268E-1,9.112050056E0,2.676000118E0
9.269458290E-1,2.700000107E-1,9.061950684E0,2.533050060E0
9.294529040E-1,6.405000389E-2,9.084000587E0,2.403000116E0
9.319608180E-1,-1.050000042E-1,9.301050186E0,2.406000137E0
9.344678970E-1,-2.790000141E-1,9.466950417E0,2.616000175E0
9.369741280E-1,-4.399500191E-1,9.318000793E0,2.808000088E0
9.394811260E-1,-4.729500115E-1,9.246000290E0,2.853000164E0
9.419891260E-1,-3.990000188E-1,9.478950500E0,2.913000107E0
9.444959740E-1,-1.999500096E-1,9.763950348E0,3.001950026E0
9.470023590E-1,0.000000000E0,9.835050583E0,3.073950052E0
9.495094480E-1,1.990500093E-1,9.718050003E0,3.009000063E0
9.520172170E-1,3.829500079E-1,9.553050041E0,2.959050179E0
9.545242960E-1,4.600500166E-1,9.366000175E0,2.911050081E0
9.570304690E-1,4.759500325E-1,9.189000130E0,2.724000216E0
9.595375440E-1,4.429500103E-1,9.085950851E0,2.535000086E0
9.620455440E-1,2.899500132E-1,9.040950775E0,2.419950008E0
9.645525420E-1,7.905000448E-2,9.141000748E0,2.403000116E0
9.670587720E-1,-1.399500072E-1,9.304050446E0,2.487000227E0
9.695658470E-1,-3.220500052E-1,9.382950783E0,2.604000092E0
9.720737700E-1,-4.830000103E-1,9.301050186E0,2.820000172E0
9.745808490E-1,-4.950000346E-1,9.346950531E0,2.971050024E0
9.770870030E-1,-3.630000055E-1,9.547950745E0,2.992050171E0
9.795940780E-1,-1.930500120E-1,9.763950348E0,3.085950136E0
9.821018470E-1,2.595000155E-2,9.823050499E0,3.153000116E0
9.846089260E-1,2.029500157E-1,9.627000809E0,3.021000147E0
9.871153110E-1,3.300000131E-1,9.439949989E0,2.875050068E0
9.896221440E-1,4.260000288E-1,9.273000717E0,2.782050133E0
9.921301440E-1,4.429500103E-1,9.157950401E0,2.671950102E0
9.946371460E-1,3.349500299E-1,9.121950150E0,2.509050131E0
9.971433670E-1,1.650000066E-1,9.145950317E0,2.391000032E0
9.996504420E-1,-7.095000148E-2,9.294000626E0,2.442000151E0
1.002158365E0,-2.770500183E-1,9.414000511E0,2.571000099E0
1.004665440E0,-4.710000157E-1,9.352050781E0,2.668950081E0
1.007171594E0,-5.359500051E-1,9.318000793E0,2.784000158E0
1.009678669E0,-4.489500225E-1,9.460050583E0,2.953950167E0
1.012186433E0,-2.599500120E-1,9.625050545E0,3.028050184E0
1.014693512E0,-5.700000376E-2,9.730050087E0,3.058950186E0
1.017199666E0,1.939500123E-1,9.735000610E0,3.085950136E0
1.019706741E0,3.730500042E-1,9.682050705E0,2.997000217E0
1.022214678E0,4.690500200E-1,9.471000671E0,2.881950140E0
1.024721757E0,5.239500403E-1,9.253950119E0,2.751000166E0
1.027227987E0,4.759500325E-1,9.084000587E0,2.593050241E0
1.029735062E0,3.060000241E-1,9.004950523E0,2.439000130E0
1.032242985E0,5.700000376E-2,9.100049973E0,2.335950136E0
1.034750064E0,-1.380000114E-1,9.321000099E0,2.370000124E0
1.037256300E0,-3.439500034E-1,9.438000679E0,2.587950230E0
1.039763298E0,-5.160000324E-1,9.370950699E0,2.767050028E0
1.042271067E0,-5.400000215E-1,9.397050858E0,2.901000023E0
1.044778146E0,-4.450500309E-1,9.603000641E0,3.021000147E0
1.047284531E0,-2.749500275E-1,9.730050087E0,3.085950136E0
1.049791606E0,-7.800000161E-2,9.751950264E0,3.124050140E0
1.052299375E0,1.530000120E-1,9.687000275E0,3.049950123E0
1.054806454E0,3.330000043E-1,9.598050117E0,2.971050024E0
1.057312617E0,4.429500103E-1,9.394950867E0,2.911050081E0
1.059819692E0,4.740000367E-1,9.214950562E0,2.788950205E0
1.062327615E0,4.260000288E-1,9.100049973E0,2.607000113E0
1.064834694E0,2.389500141E-1,9.108000755E0,2.478000164E0
1.067340848E0,-1.395000052E-2,9.222000122E0,2.346000195E0
1.069847922E0,-2.220000178E-1,9.406949997E0,2.383949995E0
1.072355692E0,-4.039500058E-1,9.462000847E0,2.604000092E0
1.074862771E0,-5.089499950E-1,9.426000595E0,2.824950218E0
1.077369155E0,-4.780500233E-1,9.450000763E0,2.976000071E0
1.079876230E0,-3.679500222E-1,9.589050293E0,2.989950180E0
1.082384023E0,-1.740000099E-1,9.706050873E0,2.992050171E0
1.084891025E0,8.100000024E-2,9.730050087E0,2.961000204E0
1.087397256E0,2.989500165E-1,9.606000900E0,2.827050209E0
1.089904331E0,4.639500082E-1,9.433050156E0,2.794050217E0
1.092412254E0,5.500500202E-1,9.273000717E0,2.857950211E0
1.094919333E0,5.239500403E-1,9.120000839E0,2.809950113E0
1.097425487E0,3.760500252E-1,9.076050758E0,2.571000099E0
1.099932639E0,1.099500060E-1,9.148050308E0,2.358000040E0
1.102440562E0,-1.399500072E-1,9.301050186E0,2.367000103E0
1.104947410E0,-4.039500058E-1,9.342000008E0,2.509050131E0
1.107453781E0,-5.500500202E-1,9.286950111E0,2.731050014E0
1.109960625E0,-5.500500202E-1,9.369000435E0,2.983050108E0
1.112468625E0,-4.350000322E-1,9.567000389E0,3.148050070E0
1.114975689E0,-2.580000162E-1,9.699000359E0,3.081000090E0
1.117481843E0,-2.295000106E-2,9.744000435E0,3.016050100E0
1.119988918E0,2.509500086E-1,9.720000267E0,2.947050095E0
1.122496846E0,4.380000234E-1,9.618000031E0,2.940000057E0
1.125003925E0,5.340000391E-1,9.409049988E0,2.892000198E0
1.127510155E0,5.190000534E-1,9.214950562E0,2.794050217E0
1.130017153E0,4.360500276E-1,9.153000832E0,2.679000139E0
1.132525143E0,1.870500147E-1,9.142950058E0,2.491950035E0
1.135031992E0,-4.200000316E-2,9.256050110E0,2.341050148E0
1.137538376E0,-2.910000086E-1,9.318000793E0,2.383949995E0
1.140045467E0,-5.020500422E-1,9.313050270E0,2.575950146E0
1.142553236E0,-5.689499974E-1,9.262950897E0,2.800950050E0
1.145060315E0,-5.160000324E-1,9.427950859E0,3.000000238E0
1.147566478E0,-3.460500240E-1,9.670050621E0,3.130950212E0
1.150073553E0,-1.140000075E-1,9.775950432E0,3.142950058E0
1.152581476E0,1.219500080E-1,9.711000443E0,3.067050219E0
1.155088555E0,3.490500152E-1,9.667950630E0,2.925000191E0
1.157594796E0,5.170500278E-1,9.531000137E0,2.884950161E0
1.160101794E0,5.740500093E-1,9.321000099E0,2.844000101E0
1.162609563E0,5.220000148E-1,9.115050316E0,2.700000048E0
1.165116642E0,3.780000210E-1,9.013950348E0,2.548950195E0
1.167623027E0,1.549500078E-1,9.079050064E0,2.359950066E0
1.170130102E0,-1.050000042E-1,9.268050194E0,2.310000181E0
1.172637871E0,-3.370500207E-1,9.337050438E0,2.386950016E0
1.175144950E0,-4.969500303E-1,9.345000267E0,2.584950209E0
1.177651334E0,-5.449500084E-1,9.325050354E0,2.884950161E0
1.180158179E0,-4.450500309E-1,9.473999977E0,3.073950052E0
1.182666184E0,-2.670000196E-1,9.676950455E0,3.129000187E0
1.185173186E0,-2.595000155E-2,9.787950516E0,3.165000200E0
1.187679416E0,1.789500117E-1,9.730050087E0,3.082950115E0
1.190186409E0,3.520500064E-1,9.559950829E0,2.929950237E0
1.192694409E0,4.549500346E-1,9.402000427E0,2.830050230E0
1.195201257E0,4.909500182E-1,9.229950905E0,2.857950211E0
1.197707652E0,3.900000155E-1,9.067049980E0,2.739000082E0
1.200214727E0,2.200500071E-1,9.064050674E0,2.545050144E0
1.202722476E0,-2.295000106E-2,9.211050034E0,2.394000053E0
1.205229555E0,-2.170500159E-1,9.409049988E0,2.403000116E0
1.207735709E0,-4.039500058E-1,9.397050858E0,2.536950111E0
1.210242784E0,-4.920000136E-1,9.289950371E0,2.688000202E0
1.212750707E0,-4.570500255E-1,9.385050774E0,2.908950090E0
1.215257786E0,-2.980500162E-1,9.603000641E0,3.067050219E0
1.217764017E0,-1.069500074E-1,9.711000443E0,3.082950115E0
1.220271097E0,1.150500029E-1,9.768000603E0,3.021000147E0
1.222779025E0,3.250500262E-1,9.697050095E0,2.911050081E0
1.225286104E0,4.549500346E-1,9.534000397E0,2.853000164E0
1.227792258E0,4.930500090E-1,9.297000885E0,2.821950197E0
1.230299332E0,4.860000312E-1,9.145950317E0,2.740950108E0
1.232807102E0,3.370500207E-1,9.043050766E0,2.686050177E0
1.235314181E0,1.360500008E-1,9.072000504E0,2.497050047E0
1.237820334E0,-8.505000174E-2,9.226950645E0,2.370000124E0
1.240327640E0,-2.550000250E-1,9.328050613E0,2.443950176E0
1.242835333E0,-4.450500309E-1,9.297000885E0,2.632950068E0
1.245342488E0,-4.680000246E-1,9.261000633E0,2.863050222E0
1.247848642E0,-3.820500076E-1,9.469050407E0,3.091050148E0
1.250355717E0,-2.340000123E-1,9.667950630E0,3.181950092E0
1.252863640E0,-2.295000106E-2,9.759000778E0,3.130950212E0
1.255370719E0,1.669500023E-1,9.754050255E0,2.952000141E0
1.257876873E0,3.229500055E-1,9.673050880E0,2.851050138E0
1.260383957E0,4.360500276E-1,9.483000755E0,2.887050152E0
1.262891726E0,4.450500309E-1,9.265950203E0,2.851050138E0
1.265398805E0,3.949500322E-1,9.172050476E0,2.731050014E0
1.267905190E0,2.610000074E-1,9.153000832E0,2.539950132E0
1.270412265E0,2.895000204E-2,9.201000214E0,2.371950150E0
1.272920049E0,-1.980000138E-1,9.286950111E0,2.310000181E0
1.275427051E0,-3.919500113E-1,9.342000008E0,2.427000046E0
1.277933282E0,-4.900500178E-1,9.352050781E0,2.710050106E0
1.280440357E0,-4.729500115E-1,9.421050072E0,3.016050100E0
1.282948280E0,-3.370500207E-1,9.559950829E0,3.117000103E0
1.285455388E0,-1.519500017E-1,9.670050621E0,3.102000237E0
1.287961541E0,6.195000187E-2,9.744000435E0,3.079050064E0
1.290468616E0,2.659500241E-1,9.712950706E0,2.947050095E0
1.292976381E0,4.260000288E-1,9.565050125E0,2.808000088E0
1.295483460E0,4.909500182E-1,9.370950699E0,2.842050076E0
1.297989844E0,4.930500090E-1,9.181950569E0,2.842050076E0
1.300496688E0,3.949500322E-1,9.025950432E0,2.664000034E0
1.303004712E0,1.789500117E-1,9.019050598E0,2.391000032E0
1.305511714E0,-2.100000158E-2,9.201000214E0,2.233050108E0
1.308017945E0,-2.479500175E-1,9.378000259E0,2.334000111E0
1.310525020E0,-4.039500058E-1,9.382950783E0,2.554050207E0
1.313032952E0,-4.879500270E-1,9.301050186E0,2.772000074E0
1.315540031E0,-4.420500100E-1,9.418950081E0,3.052050114E0
1.318046185E0,-2.700000107E-1,9.613050461E0,3.181950092E0
1.320553260E0,-1.090500057E-1,9.792000771E0,3.117000103E0
1.323061034E0,7.905000448E-2,9.862050056E0,3.040050030E0
1.325568113E0,2.800500095E-1,9.711000443E0,2.913000107E0
1.328074262E0,3.469500244E-1,9.466950417E0,2.887050152E0
1.330581568E0,4.140000343E-1,9.217950821E0,2.851050138E0
1.333089337E0,4.090500176E-1,9.145950317E0,2.844000101E0
1.335596416E0,2.659500241E-1,9.124050140E0,2.692950010E0
1.338102570E0,3.795000166E-2,9.127050400E0,2.425050020E0
1.340609640E0,-1.450500041E-1,9.268050194E0,2.287950039E0
1.343117563E0,-3.079500198E-1,9.421050072E0,2.466000080E0
1.345624642E0,-4.570500255E-1,9.385050774E0,2.700000048E0
1.348130872E0,-4.590000212E-1,9.361050606E0,2.905950069E0
1.350637875E0,-3.559500277E-1,9.535950661E0,3.037950039E0
1.353145645E0,-1.909500062E-1,9.720000267E0,3.106950045E0
1.355652723E0,-1.395000052E-2,9.796950340E0,3.070950031E0
1.358159108E0,2.010000050E-1,9.712950706E0,2.892000198E0
1.360666178E0,3.690000176E-1,9.550050735E0,2.800950050E0
1.363173947E0,4.600500166E-1,9.406949997E0,2.863050222E0
1.365681026E0,4.950000346E-1,9.253950119E0,2.824950218E0
1.368187180E0,4.620000124E-1,9.169950485E0,2.710050106E0
1.370694255E0,2.560500205E-1,9.115050316E0,2.478000164E0
1.373202183E0,1.395000052E-2,9.142950058E0,2.346000195E0
1.375709262E0,-2.170500159E-1,9.241950035E0,2.305050135E0
1.378215493E0,-4.159500301E-1,9.316050529E0,2.434050083E0
1.380722491E0,-5.160000324E-1,9.316050529E0,2.763000250E0
1.383230260E0,-4.759500325E-1,9.364050865E0,3.067050219E0
1.385737339E0,-3.390000165E-1,9.559950829E0,3.150000095E0
1.388243724E0,-1.600500047E-1,9.808950424E0,3.148050070E0
1.390750798E0,6.900000572E-2,9.850050926E0,3.121950150E0
1.393258568E0,2.299500108E-1,9.694050789E0,2.913000107E0
1.395765647E0,3.690000176E-1,9.415950775E0,2.779050112E0
1.398272002E0,4.309500158E-1,9.232050896E0,2.812950134E0
1.400778846E0,4.260000288E-1,9.166950226E0,2.844000101E0
1.403286765E0,3.520500064E-1,9.145950317E0,2.679000139E0
1.405793843E0,1.170000061E-1,9.187050819E0,2.446050167E0
1.408300074E0,-1.069500074E-1,9.313050270E0,2.338950157E0
1.410807140E0,-2.959500253E-1,9.388050079E0,2.395950079E0
1.413315063E0,-4.680000246E-1,9.292050362E0,2.551950216E0
1.415822142E0,-5.070000291E-1,9.294000626E0,2.800950050E0
1.418328296E0,-3.940500319E-1,9.481050491E0,3.064050198E0
1.420835371E0,-2.310000062E-1,9.679950714E0,3.162000179E0
1.423343140E0,-9.000000544E-3,9.796950340E0,3.117000103E0
1.425850219E0,2.220000178E-1,9.808950424E0,2.980050087E0
1.428356373E0,3.850500286E-1,9.670050621E0,2.857950211E0
1.430863448E0,4.380000234E-1,9.403950691E0,2.820000172E0
1.433371371E0,4.759500325E-1,9.169950485E0,2.752950191E0
1.435878450E0,4.309500158E-1,9.085950851E0,2.686050177E0
1.438384681E0,2.389500141E-1,9.025950432E0,2.571000099E0
1.440891756E0,1.695000008E-2,9.103050232E0,2.383949995E0
1.443399664E0,-1.789500117E-1,9.265950203E0,2.338950157E0
1.445906512E0,-3.679500222E-1,9.382950783E0,2.499000072E0
1.448412896E0,-4.680000246E-1,9.352050781E0,2.716950178E0
1.450919957E0,-4.729500115E-1,9.337050438E0,2.944050074E0
1.453427727E0,-3.460500240E-1,9.526950836E0,3.112050056E0
1.455934806E0,-1.860000044E-1,9.706050873E0,3.222000122E0
1.458440940E0,1.395000052E-2,9.784950256E0,3.166950226E0
1.460948015E0,2.080500126E-1,9.723000526E0,2.995050192E0
1.463456015E0,3.490500152E-1,9.567000389E0,2.860950232E0
1.465962987E0,3.949500322E-1,9.376049995E0,2.880000114E0
1.468469218E0,4.210500121E-1,9.178950310E0,2.782050133E0
1.470976293E0,3.300000131E-1,9.081000328E0,2.659950018E0
1.473484211E0,1.699500084E-1,9.109950066E0,2.509050131E0
1.475991290E0,-3.495000303E-2,9.238950729E0,2.353049994E0
1.478497444E0,-2.269500047E-1,9.378000259E0,2.335950136E0
1.481004533E0,-3.889500201E-1,9.373050690E0,2.478000164E0
1.483512302E0,-4.879500270E-1,9.318000793E0,2.755050182E0
1.486019381E0,-4.330500066E-1,9.412050247E0,2.995050192E0
1.488525766E0,-2.890500128E-1,9.591000557E0,3.091050148E0
1.491032610E0,-9.000000358E-2,9.744000435E0,3.097950220E0
1.493540610E0,9.795000404E-2,9.742050171E0,3.040050030E0
1.496047612E0,2.659500241E-1,9.591000557E0,2.857950211E0
1.498553843E0,3.780000210E-1,9.424050331E0,2.784000158E0
1.501060918E0,4.260000288E-1,9.265950203E0,2.824950218E0
1.503568841E0,4.279500246E-1,9.115050316E0,2.815050125E0
1.506075920E0,3.090000153E-1,8.997000694E0,2.628000021E0
1.508582073E0,9.795000404E-2,9.097949982E0,2.422950029E0
1.511089148E0,-9.000000358E-2,9.297000885E0,2.371950150E0
1.513596918E0,-2.719500065E-1,9.369000435E0,2.466000080E0
1.516103982E0,-4.350000322E-1,9.321000099E0,2.643000126E0
1.518610367E0,-4.639500082E-1,9.342000008E0,2.892000198E0
1.521117211E0,-3.390000165E-1,9.531000137E0,3.130950212E0
1.523625115E0,-1.909500062E-1,9.709050179E0,3.162000179E0
1.526132194E0,-1.800000109E-2,9.811050415E0,3.057000160E0
1.528638425E0,1.960500032E-1,9.787950516E0,2.929950237E0
1.531145514E0,3.490500152E-1,9.634050369E0,2.875050068E0
1.533653437E0,3.970500231E-1,9.373050690E0,2.821950197E0
1.536160516E0,4.480500221E-1,9.205950737E0,2.724000216E0
1.538666733E0,3.469500244E-1,9.154950142E0,2.715000153E0
1.541173731E0,1.750500053E-1,9.112050056E0,2.584950209E0
1.543681731E0,-5.700000376E-2,9.157950401E0,2.386950016E0
1.546188579E0,-2.359500080E-1,9.294000626E0,2.370000124E0
1.548694949E0,-3.970500231E-1,9.370950699E0,2.571000099E0
1.551202023E0,-4.969500303E-1,9.328050613E0,2.809950113E0
1.553709793E0,-4.590000212E-1,9.412050247E0,3.025950193E0
1.556216887E0,-3.150000274E-1,9.646050453E0,3.166950226E0
1.558723040E0,-1.050000042E-1,9.759000778E0,3.214950085E0
1.561230115E0,6.705000252E-2,9.735000610E0,3.105000257E0
1.563738038E0,3.109500110E-1,9.651000023E0,2.896950245E0
1.566245117E0,4.309500158E-1,9.577050209E0,2.863050222E0
1.568751348E0,5.190000534E-1,9.400050163E0,2.865000248E0
1.571258360E0,4.999500215E-1,9.181950569E0,2.752950191E0
1.573766129E0,3.949500322E-1,9.021000862E0,2.569050074E0
1.576273208E0,1.909500062E-1,9.072000504E0,2.379000187E0
1.578779593E0,-2.595000155E-2,9.244050026E0,2.275950193E0
1.581286668E0,-2.310000062E-1,9.381000519E0,2.350950003E0
1.583794437E0,-4.039500058E-1,9.364050865E0,2.548950195E0
1.586301516E0,-4.900500178E-1,9.354000092E0,2.848950148E0
1.588807670E0,-3.970500231E-1,9.473999977E0,3.105000257E0
1.591314745E0,-2.790000141E-1,9.664950371E0,3.153000116E0
1.593822668E0,-8.505000174E-2,9.808950424E0,3.129000187E0
1.596329742E0,1.099500060E-1,9.736950874E0,3.043050051E0
1.598835973E0,2.610000074E-1,9.558000565E0,2.896950245E0
1.601343048E0,3.709500134E-1,9.378000259E0,2.857950211E0
1.603850966E0,4.210500121E-1,9.229950905E0,2.875050068E0
1.606357814E0,3.730500042E-1,9.112050056E0,2.812950134E0
1.608864198E0,2.320500165E-1,9.057000160E0,2.599950075E0
1.611371288E0,2.895000204E-2,9.145950317E0,2.377050161E0
1.613879058E0,-1.480500102E-1,9.385050774E0,2.374950171E0
1.616386137E0,-3.199500144E-1,9.483000755E0,2.499000072E0
1.618892525E0,-4.470000267E-1,9.366000175E0,2.667000055E0
1.621399369E0,-4.369500279E-1,9.376049995E0,2.928000212E0
1.623907292E0,-3.079500198E-1,9.577050209E0,3.112050056E0
1.626414387E0,-1.500000060E-1,9.754050255E0,3.097950220E0
1.628920618E0,7.605000585E-2,9.816000938E0,2.989950180E0
1.631427693E0,2.680500150E-1,9.673050880E0,2.860950232E0
1.633935616E0,4.189500213E-1,9.471000671E0,2.820000172E0
1.636442695E0,4.789500237E-1,9.328050613E0,2.796000242E0
1.638948849E0,4.930500090E-1,9.220050812E0,2.773950100E0
1.641455904E0,4.210500121E-1,9.127050400E0,2.700000048E0
1.643963673E0,2.220000178E-1,9.084000587E0,2.518050194E0
1.646470757E0,-4.200000316E-2,9.164999962E0,2.350950003E0
1.648976911E0,-2.580000162E-1,9.310950279E0,2.367000103E0
1.651483986E0,-4.570500255E-1,9.325050354E0,2.611950159E0
1.653991909E0,-5.160000324E-1,9.294000626E0,2.887050152E0
1.656498988E0,-4.420500100E-1,9.457050323E0,3.093000174E0
1.659005219E0,-2.939999998E-1,9.697050095E0,3.177000046E0
1.661512294E0,-1.069500074E-1,9.799950600E0,3.160050154E0
1.664020217E0,8.400000632E-2,9.706050873E0,3.001950026E0
1.666527493E0,3.040500283E-1,9.625050545E0,2.830050230E0
1.669034830E0,4.159500301E-1,9.483000755E0,2.848950148E0
1.671540526E0,4.549500346E-1,9.330000877E0,2.848950148E0
1.674048294E0,4.360500276E-1,9.178950310E0,2.746050119E0
1.676555372E0,2.920500040E-1,9.133950233E0,2.560950041E0
1.679061777E0,7.605000585E-2,9.205950737E0,2.422950029E0
1.681568852E0,-1.519500017E-1,9.274950027E0,2.335950136E0
1.684076544E0,-3.270000219E-1,9.340050697E0,2.370000124E0
1.686583623E0,-4.710000157E-1,9.292050362E0,2.604000092E0
1.689089868E0,-4.800000191E-1,9.349050522E0,2.925000191E0
1.691596866E0,-3.679500222E-1,9.523950577E0,3.121950150E0
1.694104866E0,-1.690500081E-1,9.670050621E0,3.157950163E0
1.696611709E0,2.595000155E-2,9.768000603E0,3.112050056E0
1.699118094E0,2.490000129E-1,9.712950706E0,2.980050087E0
1.701625169E0,4.140000343E-1,9.523950577E0,2.794050217E0
1.704132952E0,4.950000346E-1,9.382950783E0,2.779050112E0
1.706640031E0,5.269500017E-1,9.193950653E0,2.836950064E0
1.709146416E0,4.140000343E-1,8.992950439E0,2.722050190E0
1.711653500E0,2.250000089E-1,9.013950348E0,2.442000151E0
1.714161270E0,-3.495000303E-2,9.261000633E0,2.281050205E0
1.716668349E0,-2.460000068E-1,9.424050331E0,2.353049994E0
1.719174502E0,-4.300500154E-1,9.342000008E0,2.527950048E0
1.721681577E0,-5.239500403E-1,9.265950203E0,2.755050182E0
1.724189500E0,-4.570500255E-1,9.438000679E0,3.012000084E0
1.726696569E0,-3.010500073E-1,9.658050537E0,3.181950092E0
1.729202723E0,-1.309500039E-1,9.766050339E0,3.141000032E0
1.731709798E0,1.099500060E-1,9.771000862E0,3.040050030E0
1.734217567E0,3.010500073E-1,9.697050095E0,2.956050158E0
1.736724877E0,4.039500058E-1,9.541050911E0,2.928000212E0
1.739231031E0,4.240500331E-1,9.333000183E0,2.824950218E0
1.741738106E0,4.039500058E-1,9.127050400E0,2.752950191E0
1.744245875E0,2.800500095E-1,9.024000168E0,2.671950102E0
1.746752954E0,6.405000389E-2,9.072000504E0,2.482050180E0
1.749259108E0,-1.450500041E-1,9.232050896E0,2.326950073E0
1.751766183E0,-2.980500162E-1,9.412050247E0,2.454000235E0
1.754274106E0,-4.249500334E-1,9.388050079E0,2.667000055E0
1.756781190E0,-4.639500082E-1,9.342000008E0,2.848950148E0
1.759287344E0,-3.730500042E-1,9.502950668E0,3.001950026E0
1.761794496E0,-1.909500062E-1,9.723000526E0,3.076050043E0
1.764302419E0,-2.100000158E-2,9.782999992E0,3.106950045E0
1.766809498E0,1.870500147E-1,9.663000107E0,2.964000225E0
1.769315651E0,3.370500207E-1,9.523950577E0,2.806050062E0
1.771822726E0,4.279500246E-1,9.403950691E0,2.803050041E0
1.774330491E0,4.810500145E-1,9.250950813E0,2.797950029E0
1.776837570E0,4.399500191E-1,9.133950233E0,2.688000202E0
1.779343723E0,2.580000162E-1,9.067049980E0,2.560950041E0
1.781850789E0,2.400000021E-2,9.160050392E0,2.419950008E0
1.784358712E0,-1.930500120E-1,9.273000717E0,2.367000103E0
1.786865791E0,-3.559500277E-1,9.316050529E0,2.478000164E0
1.789372022E0,-4.729500115E-1,9.316050529E0,2.716950178E0
1.791879097E0,-4.639500082E-1,9.381000519E0,3.016050100E0
1.794387020E0,-3.199500144E-1,9.601050377E0,3.178950071E0
1.796893868E0,-1.740000099E-1,9.747000694E0,3.165000200E0
1.799400253E0,4.995000362E-2,9.796950340E0,3.105000257E0
1.801907328E0,2.440500110E-1,9.670050621E0,2.928000212E0
1.804415097E0,3.640500307E-1,9.505050659E0,2.764950037E0
1.806922176E0,4.330500066E-1,9.310950279E0,2.773950100E0
1.809428561E0,4.360500276E-1,9.172050476E0,2.784000158E0
1.811935405E0,3.349500299E-1,9.096000671E0,2.695050240E0
1.814443405E0,1.200000048E-1,9.139050484E0,2.449050188E0
1.816950407E0,-1.020000055E-1,9.325050354E0,2.346000195E0
1.819456638E0,-3.300000131E-1,9.378000259E0,2.418000221E0
1.821963636E0,-5.089499950E-1,9.268050194E0,2.547000170E0
1.824471636E0,-5.329500437E-1,9.318000793E0,2.806050062E0
1.826978715E0,-4.300500154E-1,9.507000923E0,3.102000237E0
1.829484848E0,-2.460000068E-1,9.676950455E0,3.202950239E0
1.831991923E0,-3.495000303E-2,9.754050255E0,3.117000103E0
1.834499693E0,1.890000105E-1,9.739950180E0,3.009000063E0
1.837006752E0,3.810000122E-1,9.676950455E0,2.868000031E0
1.839513137E0,4.830000103E-1,9.439949989E0,2.833950043E0
1.842020212E0,5.029500127E-1,9.193950653E0,2.776950121E0
1.844527981E0,4.639500082E-1,9.067049980E0,2.712000132E0
1.847034983E0,2.800500095E-1,9.019050598E0,2.602050066E0
1.849541214E0,4.800000042E-2,9.112050056E0,2.359950066E0
1.852048294E0,-1.500000060E-1,9.277950287E0,2.287950039E0
1.854556217E0,-3.510000110E-1,9.378000259E0,2.470050097E0
1.857063296E0,-4.879500270E-1,9.364050865E0,2.728950024E0
1.859569450E0,-4.830000103E-1,9.381000519E0,2.956050158E0
1.862076525E0,-3.540000021E-1,9.589050293E0,3.129000187E0
1.864584294E0,-1.909500062E-1,9.736950874E0,3.214950085E0
1.867091378E0,-1.950000064E-3,9.744000435E0,3.154950142E0
1.869597763E0,1.789500117E-1,9.673050880E0,2.965950251E0
1.872104607E0,3.540000021E-1,9.562050819E0,2.860950232E0
1.874612607E0,4.309500158E-1,9.385050774E0,2.869950056E0
1.877119609E0,4.450500309E-1,9.220050812E0,2.842050076E0
1.879625839E0,3.490500152E-1,9.105000496E0,2.691000223E0
1.882132914E0,1.699500084E-1,9.081000328E0,2.527950048E0
1.884640837E0,-3.000000119E-2,9.226950645E0,2.358000040E0
1.887147916E0,-2.550000250E-1,9.412050247E0,2.371950150E0
1.889654127E0,-4.180500209E-1,9.382950783E0,2.521050215E0
1.892161125E0,-5.020500422E-1,9.357000351E0,2.764950037E0
1.894669125E0,-4.489500225E-1,9.462000847E0,3.016050100E0
1.897176204E0,-2.939999998E-1,9.630000114E0,3.079050064E0
1.899682368E0,-1.000500023E-1,9.771000862E0,3.100050211E0
1.902189443E0,1.309500039E-1,9.759000778E0,3.043050051E0
1.904697212E0,3.229500055E-1,9.567000389E0,2.853000164E0
1.907204291E0,4.279500246E-1,9.358950615E0,2.751000166E0
1.909710445E0,5.100000501E-1,9.237000465E0,2.820000172E0
1.912217520E0,4.879500270E-1,9.121950150E0,2.844000101E0
1.914725424E0,3.349500299E-1,9.109950066E0,2.662050009E0
1.917232503E0,1.099500060E-1,9.141000748E0,2.403000116E0
1.919738734E0,-1.450500041E-1,9.306000710E0,2.365050077E0
1.922245722E0,-3.510000110E-1,9.340050697E0,2.479950190E0
1.924753722E0,-5.359500051E-1,9.246000290E0,2.662050009E0
1.927260570E0,-5.359500051E-1,9.318000793E0,2.905950069E0
1.929766940E0,-3.940500319E-1,9.570000648E0,3.136050224E0
1.932274015E0,-2.070000172E-1,9.724950790E0,3.138000250E0
1.934781785E0,1.905000024E-2,9.782999992E0,3.043050051E0
1.937288864E0,2.370000184E-1,9.775950432E0,2.937000036E0
1.939795026E0,3.900000155E-1,9.603000641E0,2.853000164E0
1.942302101E0,4.260000288E-1,9.358950615E0,2.809950113E0
1.944810024E0,4.570500255E-1,9.190950394E0,2.752950191E0
1.947317088E0,3.919500113E-1,9.153000832E0,2.704950094E0
1.949823319E0,1.549500078E-1,9.136050224E0,2.563950062E0
1.952330317E0,-8.100000024E-2,9.154950142E0,2.391000032E0
1.954838317E0,-2.719500065E-1,9.294000626E0,2.379000187E0
1.957345165E0,-4.489500225E-1,9.337050438E0,2.563950062E0
1.959851550E0,-5.119500160E-1,9.370950699E0,2.803050041E0
1.962358625E0,-4.470000267E-1,9.448050499E0,3.033000231E0
1.964866394E0,-2.790000141E-1,9.595950127E0,3.174000263E0
1.967373473E0,-7.800000161E-2,9.703950882E0,3.202950239E0
1.969879858E0,1.510500014E-1,9.723000526E0,3.093000174E0
1.972386918E0,3.610500097E-1,9.694050789E0,2.868000031E0
1.974894687E0,4.999500215E-1,9.553050041E0,2.812950134E0
1.977401689E0,5.100000501E-1,9.297000885E0,2.806050062E0
1.979907916E0,4.999500215E-1,9.109950066E0,2.692950010E0
1.982414990E0,3.660000265E-1,9.036000252E0,2.539950132E0
1.984922914E0,1.270500124E-1,9.108000755E0,2.362950087E0
1.987429993E0,-1.050000042E-1,9.265950203E0,2.260050058E0
1.989936165E0,-3.180000186E-1,9.345000267E0,2.314950228E0
1.992443240E0,-4.680000246E-1,9.349050522E0,2.554050207E0
1.994951010E0,-5.040000081E-1,9.342000008E0,2.887050152E0
1.997458093E0,-4.399500191E-1,9.493050575E0,3.133950233E0
1.999964478E0,-2.580000162E-1,9.634050369E0,3.165000200E0
2.002471322E0,-6.900000572E-2,9.759000778E0,3.165000200E0
2.004979331E0,1.429500133E-1,9.766050339E0,3.067050219E0
2.007486333E0,2.899500132E-1,9.546000481E0,2.889000177E0
2.009992564E0,4.189500213E-1,9.373050690E0,2.809950113E0
2.012499620E0,4.429500103E-1,9.193950653E0,2.856000185E0
2.015007543E0,3.970500231E-1,9.103050232E0,2.808000088E0
2.017514622E0,2.149500102E-1,9.069000244E0,2.602050066E0
2.020020790E0,9.000000544E-3,9.208050728E0,2.370000124E0
2.022527865E0,-1.879500151E-1,9.426000595E0,2.370000124E0
2.025035634E0,-3.730500042E-1,9.403950691E0,2.494050026E0
2.027542713E0,-4.780500233E-1,9.297000885E0,2.644950151E0
2.030049098E0,-4.129500091E-1,9.414000511E0,2.913000107E0
2.032555947E0,-2.749500275E-1,9.663000107E0,3.105000257E0
2.035063947E0,-9.000000358E-2,9.760950089E0,3.102000237E0
2.037571026E0,1.360500008E-1,9.784950256E0,2.985000134E0
2.040077179E0,2.989500165E-1,9.664950371E0,2.815050125E0
2.042584254E0,4.039500058E-1,9.478950500E0,2.803050041E0
2.045092177E0,4.759500325E-1,9.261000633E0,2.788950205E0
2.047599256E0,4.740000367E-1,9.164999962E0,2.773950100E0
2.050105487E0,3.469500244E-1,9.115050316E0,2.736000061E0
2.052612562E0,1.219500080E-1,9.079050064E0,2.563950062E0
2.055120485E0,-1.260000020E-1,9.157950401E0,2.394000053E0
2.057627333E0,-3.030000031E-1,9.301050186E0,2.422950029E0
2.060133718E0,-4.609500170E-1,9.321000099E0,2.640000105E0
2.062640793E0,-5.089499950E-1,9.328050613E0,2.869950056E0
2.065148562E0,-3.889500201E-1,9.466950417E0,3.064050198E0
2.067655636E0,-2.430000156E-1,9.673050880E0,3.154950142E0
2.070161790E0,-4.500000179E-2,9.796950340E0,3.172050238E0
2.072668865E0,1.510500014E-1,9.792000771E0,2.985000134E0
2.075176788E0,3.570000231E-1,9.634050369E0,2.815050125E0
2.077683867E0,4.429500103E-1,9.469050407E0,2.803050041E0
2.080190098E0,4.879500270E-1,9.273000717E0,2.784000158E0
2.082697096E0,4.399500191E-1,9.164999962E0,2.698050022E0
2.085205106E0,2.749500275E-1,9.127050400E0,2.535000086E0
2.087711954E0,3.795000166E-2,9.190950394E0,2.410950184E0
2.090218338E0,-2.029500157E-1,9.304050446E0,2.358000040E0
2.092725427E0,-3.889500201E-1,9.337050438E0,2.410950184E0
2.095233197E0,-5.089499950E-1,9.316050529E0,2.667000055E0
2.097740276E0,-4.969500303E-1,9.370950699E0,2.964000225E0
2.100246646E0,-3.660000265E-1,9.529050827E0,3.160050154E0
2.102753721E0,-1.909500062E-1,9.694050789E0,3.153000116E0
2.105261490E0,5.700000376E-2,9.790050507E0,3.106950045E0
2.107768502E0,2.659500241E-1,9.699000359E0,2.961000204E0
2.110274733E0,4.140000343E-1,9.514950752E0,2.809950113E0
2.112781731E0,4.909500182E-1,9.342000008E0,2.824950218E0
2.115289731E0,5.149500370E-1,9.178950310E0,2.812950134E0
2.117796599E0,3.919500113E-1,9.040950775E0,2.671950102E0
2.120302984E0,2.130000144E-1,9.064050674E0,2.415000200E0
2.122810059E0,-3.495000303E-2,9.250950813E0,2.274000168E0
2.125317828E0,-2.479500175E-1,9.426000595E0,2.374950171E0
2.127824907E0,-4.180500209E-1,9.366000175E0,2.554050207E0
2.130331292E0,-4.849500358E-1,9.285000801E0,2.751000166E0
2.132838136E0,-4.210500121E-1,9.412050247E0,3.022950172E0
2.135346136E0,-2.790000141E-1,9.630000114E0,3.145950079E0
2.137853138E0,-7.605000585E-2,9.759000778E0,3.138000250E0
2.140359369E0,1.480500102E-1,9.771000862E0,3.045000076E0
2.142866447E0,3.060000241E-1,9.670050621E0,2.953950167E0
2.145374371E0,4.090500176E-1,9.478950500E0,2.911050081E0
2.147881450E0,4.189500213E-1,9.256050110E0,2.818050146E0
2.150387589E0,4.020000100E-1,9.133950233E0,2.755050182E0
2.152894664E0,2.509500086E-1,9.088050842E0,2.671950102E0
2.155402434E0,4.095000029E-2,9.103050232E0,2.451000214E0
2.157909521E0,-1.620000005E-1,9.244050026E0,2.317050219E0
2.160415906E0,-3.510000110E-1,9.412050247E0,2.439000130E0
2.162922981E0,-4.680000246E-1,9.381000519E0,2.698050022E0
2.165430746E0,-4.920000136E-1,9.342000008E0,2.880000114E0
2.167937825E0,-3.730500042E-1,9.510000229E0,3.009000063E0
2.170443979E0,-1.759500057E-1,9.723000526E0,3.097950220E0
2.172951054E0,2.595000155E-2,9.804000854E0,3.100050211E0
2.175458967E0,2.389500141E-1,9.703950882E0,2.913000107E0
2.177966046E0,3.900000155E-1,9.574050903E0,2.794050217E0
2.180472200E0,4.639500082E-1,9.370950699E0,2.827050209E0
2.182979338E0,4.999500215E-1,9.229950905E0,2.833950043E0
2.185487030E0,4.360500276E-1,9.136050224E0,2.719050169E0
2.187994340E0,2.340000123E-1,9.093000412E0,2.521050215E0
2.190500494E0,-1.095000096E-2,9.184050560E0,2.407950163E0
2.193007338E0,-2.050500065E-1,9.280050278E0,2.395950079E0
2.195515338E0,-4.039500058E-1,9.301050186E0,2.499000072E0
2.198022417E0,-4.950000346E-1,9.316050529E0,2.746050119E0
2.200528589E0,-4.570500255E-1,9.442950249E0,3.043050051E0
2.203035664E0,-3.270000219E-1,9.619950294E0,3.154950142E0
2.205543587E0,-1.450500041E-1,9.739950180E0,3.091050148E0
2.208050666E0,6.195000187E-2,9.760950089E0,3.022950172E0
2.210556897E0,2.700000107E-1,9.694050789E0,2.917950153E0
2.213063895E0,4.020000100E-1,9.529050827E0,2.806050062E0
2.215571895E0,4.570500255E-1,9.330000877E0,2.776950121E0
2.218078743E0,4.330500066E-1,9.154950142E0,2.755050182E0
2.220585128E0,2.869500220E-1,9.060000420E0,2.616000175E0
2.223092203E0,6.405000389E-2,9.142950058E0,2.422950029E0
2.225599977E0,-1.399500072E-1,9.345000267E0,2.347950220E0
2.228107056E0,-3.270000219E-1,9.394950867E0,2.463000059E0
2.230613210E0,-4.879500270E-1,9.297000885E0,2.631000042E0
2.233120284E0,-5.089499950E-1,9.286950111E0,2.856000185E0
2.235628207E0,-3.870000243E-1,9.505050659E0,3.102000237E0
2.238135363E0,-2.050500065E-1,9.685050011E0,3.162000179E0
2.240641537E0,2.100000158E-2,9.735000610E0,3.106950045E0
2.243148612E0,2.370000184E-1,9.727950096E0,2.985000134E0
2.245656535E0,4.090500176E-1,9.619950294E0,2.865000248E0
2.248163387E0,4.759500325E-1,9.442950249E0,2.808000088E0
2.250669771E0,4.950000346E-1,9.246000290E0,2.752950191E0
2.253176846E0,4.330500066E-1,9.109950066E0,2.691000223E0
2.255684625E0,2.389500141E-1,9.001950264E0,2.557050228E0
2.258191704E0,1.395000052E-2,9.084000587E0,2.320050001E0
2.260697857E0,-1.740000099E-1,9.297000885E0,2.263950109E0
2.263205163E0,-3.660000265E-1,9.418950081E0,2.463000059E0
2.265712956E0,-4.849500358E-1,9.333000183E0,2.722050190E0
2.268220035E0,-4.879500270E-1,9.333000183E0,2.961000204E0
2.270726189E0,-3.439500034E-1,9.543000221E0,3.145950079E0
2.273233254E0,-1.740000099E-1,9.759000778E0,3.246000051E0
2.275741177E0,2.895000204E-2,9.816000938E0,3.189000130E0
2.278248256E0,2.029500157E-1,9.700950623E0,2.985000134E0
2.280754410E0,3.180000186E-1,9.553050041E0,2.857950211E0
2.283261485E0,4.039500058E-1,9.381000519E0,2.881950140E0
2.285769254E0,4.360500276E-1,9.222000122E0,2.868000031E0
2.288276333E0,3.349500299E-1,9.100049973E0,2.736000061E0
2.290782718E0,1.549500078E-1,9.103050232E0,2.539950132E0
2.293289793E0,-4.005000368E-2,9.211050034E0,2.386950016E0
2.295797562E0,-2.340000123E-1,9.369000435E0,2.322000027E0
2.298304569E0,-3.700500131E-1,9.394950867E0,2.446050167E0
2.300810800E0,-4.369500279E-1,9.391950607E0,2.740950108E0
2.303317874E0,-3.870000243E-1,9.460050583E0,3.031050205E0
2.305825879E0,-2.580000162E-1,9.618000031E0,3.121950150E0
2.308332882E0,-7.800000161E-2,9.736950874E0,3.057000160E0
2.310839112E0,1.360500008E-1,9.747000694E0,2.988000154E0
2.313346124E0,3.109500110E-1,9.625050545E0,2.839050055E0
2.315854124E0,4.000500143E-1,9.369000435E0,2.715000153E0
2.318360972E0,4.399500191E-1,9.214950562E0,2.776950121E0
2.320867357E0,4.309500158E-1,9.127050400E0,2.851050138E0
2.323374432E0,2.920500040E-1,9.069000244E0,2.680950165E0
2.325882187E0,8.595000207E-2,9.108000755E0,2.419950008E0
2.328389266E0,-1.260000020E-1,9.289950371E0,2.323950052E0
2.330895420E0,-3.319500089E-1,9.357000351E0,2.467950106E0
2.333402524E0,-4.780500233E-1,9.222000122E0,2.644950151E0
2.335910447E0,-4.729500115E-1,9.294000626E0,2.911050081E0
2.338417526E0,-3.540000021E-1,9.534000397E0,3.153000116E0
2.340923752E0,-1.759500057E-1,9.718050003E0,3.201000214E0
2.343430827E0,-6.000000052E-3,9.784950256E0,3.088050127E0
2.345938750E0,2.059500068E-1,9.772950172E0,2.899050236E0
2.348445829E0,3.570000231E-1,9.651000023E0,2.824950218E0
2.350951983E0,4.090500176E-1,9.418950081E0,2.806050062E0
2.353459057E0,4.399500191E-1,9.181950569E0,2.755050182E0
2.355966827E0,3.690000176E-1,9.115050316E0,2.710050106E0
2.358473906E0,1.890000105E-1,9.139050484E0,2.563950062E0
2.360980059E0,-2.595000155E-2,9.213000298E0,2.350950003E0
2.363487134E0,-2.410500050E-1,9.321000099E0,2.323950052E0
2.365995057E0,-4.039500058E-1,9.354000092E0,2.502000093E0
2.368502117E0,-4.830000103E-1,9.294000626E0,2.820000172E0
2.371008348E0,-4.210500121E-1,9.462000847E0,3.064050198E0
2.373515423E0,-3.060000241E-1,9.658050537E0,3.181950092E0
2.376023346E0,-1.210500076E-1,9.747000694E0,3.205050230E0
2.378530420E0,8.595000207E-2,9.711000443E0,3.100050211E0
2.381036574E0,2.920500040E-1,9.640950203E0,2.869950056E0
2.383543649E0,4.360500276E-1,9.541050911E0,2.812950134E0
2.386051634E0,4.909500182E-1,9.364050865E0,2.842050076E0
2.388558482E0,4.690500200E-1,9.121950150E0,2.770050049E0
2.391064867E0,3.450000286E-1,8.989950180E0,2.572950125E0
2.393571711E0,1.459500045E-1,9.088050842E0,2.379000187E0
2.396079639E0,-5.700000376E-2,9.261000633E0,2.263950109E0
2.398586795E0,-2.550000250E-1,9.382950783E0,2.323950052E0
2.401092949E0,-4.249500334E-1,9.364050865E0,2.535000086E0
2.403600024E0,-4.609500170E-1,9.334950447E0,2.869950056E0
2.406107947E0,-4.230000079E-1,9.463950157E0,3.142950058E0
2.408615012E0,-2.770500183E-1,9.651000023E0,3.157950163E0
2.411121242E0,-7.800000161E-2,9.784950256E0,3.109950066E0
2.413628240E0,1.200000048E-1,9.735000610E0,3.031050205E0
2.416136010E0,2.820000052E-1,9.517050743E0,2.869950056E0
2.418643079E0,3.949500322E-1,9.333000183E0,2.806050062E0
2.421149463E0,4.519500136E-1,9.220050812E0,2.851050138E0
2.423656538E0,4.039500058E-1,9.117000580E0,2.812950134E0
2.426164283E0,2.320500165E-1,9.084000587E0,2.583000183E0
2.428671362E0,2.895000204E-2,9.187050819E0,2.338950157E0
2.431177516E0,-1.759500057E-1,9.414000511E0,2.341050148E0
2.433684822E0,-3.730500042E-1,9.436050415E0,2.503950119E0
2.436192514E0,-4.800000191E-1,9.297000885E0,2.686050177E0
2.438699593E0,-4.519500136E-1,9.381000519E0,2.917950153E0
2.441205824E0,-3.079500198E-1,9.622050285E0,3.093000174E0
2.443712822E0,-1.189500093E-1,9.782999992E0,3.094950199E0
2.446220591E0,9.300000221E-2,9.763950348E0,2.976000071E0
2.448727670E0,2.869500220E-1,9.667950630E0,2.839050055E0
2.451234065E0,4.020000100E-1,9.486000061E0,2.839050055E0
2.453741140E0,4.740000367E-1,9.297000885E0,2.833950043E0
2.456248909E0,4.909500182E-1,9.175050735E0,2.797950029E0
2.458755984E0,3.760500252E-1,9.100049973E0,2.700000048E0
2.461262368E0,1.480500102E-1,9.084000587E0,2.563950062E0
2.463769212E0,-7.605000585E-2,9.181950569E0,2.391000032E0
2.466277212E0,-2.790000141E-1,9.304050446E0,2.413050175E0
2.468784215E0,-4.249500334E-1,9.309000015E0,2.619000196E0
2.471290445E0,-4.999500215E-1,9.298950195E0,2.892000198E0
2.473797515E0,-3.870000243E-1,9.409049988E0,3.082950115E0
2.476305438E0,-2.359500080E-1,9.664950371E0,3.136050224E0
2.478812517E0,-4.500000179E-2,9.808950424E0,3.133950233E0
2.481318666E0,1.579500139E-1,9.772950172E0,2.973000050E0
2.483825741E0,3.280500174E-1,9.679950714E0,2.818050146E0
2.486333510E0,4.240500331E-1,9.487950325E0,2.820000172E0
2.488840589E0,4.450500309E-1,9.285000801E0,2.827050209E0
2.491346974E0,4.069500268E-1,9.139050484E0,2.740950108E0
2.493853818E0,2.749500275E-1,9.105000496E0,2.533050060E0
2.496361808E0,3.795000166E-2,9.193950653E0,2.377050161E0
2.498868810E0,-1.740000099E-1,9.309000015E0,2.323950052E0
2.501375041E0,-3.730500042E-1,9.334950447E0,2.406000137E0
2.503882116E0,-5.089499950E-1,9.292050362E0,2.652000189E0
2.506390039E0,-4.780500233E-1,9.373050690E0,2.965950251E0
2.508897118E0,-3.820500076E-1,9.550050735E0,3.198000193E0
2.511403272E0,-1.810500026E-1,9.682050705E0,3.177000046E0
2.513910346E0,3.795000166E-2,9.763950348E0,3.106950045E0
2.516418116E0,2.389500141E-1,9.711000443E0,2.959050179E0
2.518925425E0,4.069500268E-1,9.558000565E0,2.797950029E0
2.521431594E0,4.879500270E-1,9.357000351E0,2.773950100E0
2.523938669E0,5.220000148E-1,9.199050903E0,2.812950134E0
2.526446438E0,4.330500066E-1,9.048000336E0,2.710050106E0
2.528953545E0,2.419500053E-1,9.001950264E0,2.442000151E0
2.531459699E0,1.905000024E-2,9.193950653E0,2.242950201E0
2.533966774E0,-1.840500087E-1,9.409049988E0,2.296050072E0
2.536474697E0,-3.889500201E-1,9.382950783E0,2.515950203E0
2.538981776E0,-5.020500422E-1,9.294000626E0,2.751000166E0
2.541488007E0,-4.399500191E-1,9.412050247E0,3.025950193E0
2.543995082E0,-2.910000086E-1,9.583950043E0,3.178950071E0
2.546503005E0,-1.090500057E-1,9.775950432E0,3.166950226E0
2.549010084E0,9.300000221E-2,9.808950424E0,3.058950186E0
2.551516238E0,2.580000162E-1,9.703950882E0,2.941950083E0
2.554023299E0,3.330000043E-1,9.473999977E0,2.880000114E0
2.556531068E0,4.090500176E-1,9.237000465E0,2.875050068E0
2.559038147E0,4.069500268E-1,9.129000664E0,2.827050209E0
2.561544287E0,2.820000052E-1,9.085950851E0,2.698050022E0
2.564051362E0,6.195000187E-2,9.088050842E0,2.475000143E0
2.566559285E0,-9.495000541E-2,9.217950821E0,2.323950052E0
2.569066364E0,-2.790000141E-1,9.418950081E0,2.427000046E0
2.571572594E0,-4.110000134E-1,9.414000511E0,2.676000118E0
2.574079592E0,-4.399500191E-1,9.376049995E0,2.901000023E0
2.576587596E0,-3.390000165E-1,9.523950577E0,3.034950256E0
2.579094445E0,-1.909500062E-1,9.724950790E0,3.085950136E0
2.581600829E0,1.950000064E-3,9.804000854E0,3.079050064E0
2.584107904E0,1.669500023E-1,9.706050873E0,2.911050081E0
2.586615678E0,3.450000286E-1,9.547950745E0,2.770050049E0
2.589122757E0,4.480500221E-1,9.378000259E0,2.818050146E0
2.591628911E0,4.710000157E-1,9.238950729E0,2.820000172E0
2.594136217E0,4.330500066E-1,9.127050400E0,2.736000061E0
2.596643986E0,2.629500031E-1,9.088050842E0,2.524950027E0
2.599151065E0,4.500000179E-2,9.164999962E0,2.374950171E0
2.601657219E0,-1.720500141E-1,9.289950371E0,2.359950066E0
2.604164294E0,-3.769500256E-1,9.313050270E0,2.454000235E0
2.606672217E0,-4.680000246E-1,9.313050270E0,2.739000082E0
2.609179296E0,-4.830000103E-1,9.406949997E0,3.076050043E0
2.611685517E0,-3.630000055E-1,9.555000305E0,3.205050230E0
2.614192515E0,-1.840500087E-1,9.706050873E0,3.129000187E0
2.616700284E0,2.895000204E-2,9.807000160E0,3.064050198E0
2.619207348E0,2.389500141E-1,9.718050003E0,2.908950090E0
2.621713732E0,3.570000231E-1,9.486000061E0,2.785950184E0
2.624220807E0,4.380000234E-1,9.282000542E0,2.773950100E0
2.626728576E0,4.480500221E-1,9.184050560E0,2.812950134E0
2.629235670E0,3.520500064E-1,9.166950226E0,2.700000048E0
2.631741824E0,1.429500133E-1,9.184050560E0,2.451000214E0
2.634248899E0,-1.069500074E-1,9.309000015E0,2.314950228E0
2.636756903E0,-3.060000241E-1,9.346950531E0,2.391000032E0
2.639263905E0,-4.729500115E-1,9.301050186E0,2.611950159E0
2.641770136E0,-5.160000324E-1,9.316050529E0,2.827050209E0
2.644277134E0,-3.919500113E-1,9.499950409E0,3.052050114E0
2.646784894E0,-2.359500080E-1,9.670050621E0,3.166950226E0
2.649291973E0,-2.805000171E-2,9.732000351E0,3.126000166E0
2.651798358E0,1.939500123E-1,9.759000778E0,2.961000204E0
2.654305442E0,3.760500252E-1,9.667950630E0,2.856000185E0
2.656813211E0,4.759500325E-1,9.433050156E0,2.818050146E0
2.659320290E0,4.759500325E-1,9.205950737E0,2.800950050E0
2.661826675E0,4.240500331E-1,9.049950600E0,2.712000132E0
2.664333519E0,2.560500205E-1,9.040950775E0,2.566050053E0
2.666841005E0,2.595000155E-2,9.105000496E0,2.347950220E0
2.669348320E0,-1.879500151E-1,9.277950287E0,2.281050205E0
2.671854761E0,-3.439500034E-1,9.390000343E0,2.470050097E0
2.674361836E0,-4.710000157E-1,9.337050438E0,2.743050098E0
2.676869759E0,-4.710000157E-1,9.361050606E0,2.959050179E0
2.679376838E0,-3.679500222E-1,9.519000053E0,3.117000103E0
2.681882992E0,-1.930500120E-1,9.732000351E0,3.184050083E0
2.684390067E0,1.950000064E-3,9.799950600E0,3.162000179E0
2.686897831E0,2.010000050E-1,9.732000351E0,2.985000134E0
2.689404910E0,3.589500189E-1,9.571950912E0,2.875050068E0
2.691911295E0,4.210500121E-1,9.388050079E0,2.893950224E0
2.694418134E0,4.570500255E-1,9.217950821E0,2.848950148E0
2.696926134E0,3.850500286E-1,9.129000664E0,2.683050156E0
2.699433136E0,1.939500123E-1,9.121950150E0,2.485050201E0
2.701939382E0,-2.100000158E-2,9.226950645E0,2.347950220E0
2.704446457E0,-2.269500047E-1,9.394950867E0,2.338950157E0
2.706954389E0,-3.990000188E-1,9.381000519E0,2.470050097E0
2.709461468E0,-4.759500325E-1,9.357000351E0,2.731050014E0
2.711967637E0,-4.399500191E-1,9.442950249E0,3.046950102E0
2.714474712E0,-2.820000052E-1,9.619950294E0,3.112050056E0
2.716982481E0,-7.304999977E-2,9.763950348E0,3.052050114E0
2.719489560E0,1.270500124E-1,9.768000603E0,3.019050121E0
2.721995944E0,2.850000262E-1,9.607950211E0,2.848950148E0
2.724502789E0,4.020000100E-1,9.378000259E0,2.740950108E0
2.727010789E0,4.669500291E-1,9.214950562E0,2.788950205E0
2.729517868E0,4.519500136E-1,9.127050400E0,2.821950197E0
2.732024021E0,3.060000241E-1,9.013950348E0,2.662050009E0
2.734531096E0,7.395000011E-2,9.079050064E0,2.418000221E0
2.737039019E0,-1.170000061E-1,9.262950897E0,2.338950157E0
2.739546098E0,-3.150000274E-1,9.382950783E0,2.451000214E0
2.742052329E0,-4.830000103E-1,9.289950371E0,2.676000118E0
2.744559404E0,-4.800000191E-1,9.316050529E0,2.892000198E0
2.747067312E0,-3.610500097E-1,9.498000145E0,3.141000032E0
2.749574391E0,-1.840500087E-1,9.720000267E0,3.165000200E0
2.752080545E0,-1.950000064E-3,9.811050415E0,3.064050198E0
2.754587620E0,2.110500038E-1,9.768000603E0,2.896950245E0
2.757095404E0,3.690000176E-1,9.619950294E0,2.842050076E0
2.759602483E0,4.240500331E-1,9.381000519E0,2.812950134E0
2.762108637E0,4.519500136E-1,9.202950478E0,2.776950121E0
2.764615727E0,3.850500286E-1,9.163050652E0,2.692950010E0
2.767123650E0,1.840500087E-1,9.151050568E0,2.535000086E0
2.769630806E0,-5.700000376E-2,9.196050644E0,2.370000124E0
2.772136970E0,-2.650500238E-1,9.313050270E0,2.338950157E0
2.774644044E0,-4.210500121E-1,9.337050438E0,2.533050060E0
2.777151968E0,-4.950000346E-1,9.313050270E0,2.836950064E0
2.779659031E0,-4.729500115E-1,9.409049988E0,3.058950186E0
2.782165185E0,-3.130500019E-1,9.601050377E0,3.142950058E0
2.784672260E0,-1.189500093E-1,9.775950432E0,3.172050238E0
2.787179991E0,8.400000632E-2,9.792000771E0,3.102000237E0
2.789687070E0,3.060000241E-1,9.682050705E0,2.893950224E0
2.792193455E0,4.429500103E-1,9.538950920E0,2.836950064E0
2.794700530E0,5.239500403E-1,9.354000092E0,2.887050152E0
2.797208299E0,4.980000257E-1,9.175050735E0,2.763000250E0
2.799715378E0,3.900000155E-1,9.057000160E0,2.578050137E0
2.802221532E0,1.750500053E-1,9.048000336E0,2.346000195E0
2.804728607E0,-3.000000119E-2,9.226950645E0,2.250000000E0
2.807236530E0,-2.410500050E-1,9.366000175E0,2.329050064E0
2.809743609E0,-4.009500146E-1,9.370950699E0,2.524950027E0
2.812249840E0,-4.759500325E-1,9.337050438E0,2.845950127E0
2.814756838E0,-4.110000134E-1,9.442950249E0,3.061950207E0
2.817264838E0,-2.839500010E-1,9.619950294E0,3.124050140E0
2.819771686E0,-7.095000148E-2,9.787950516E0,3.117000103E0
2.822278076E0,1.150500029E-1,9.784950256E0,3.058950186E0
2.824785150E0,2.490000129E-1,9.567000389E0,2.893950224E0
2.827292920E0,3.660000265E-1,9.345000267E0,2.842050076E0
2.829799999E0,3.970500231E-1,9.199050903E0,2.865000248E0
2.832306132E0,4.000500143E-1,9.139050484E0,2.773950100E0
2.834813207E0,2.340000123E-1,9.093000412E0,2.604000092E0
2.837321130E0,1.905000024E-2,9.163050652E0,2.377050161E0
2.839828277E0,-1.789500117E-1,9.381000519E0,2.365050077E0
2.842334431E0,-3.490500152E-1,9.427950859E0,2.502000093E0
2.844841429E0,-4.660500288E-1,9.313050270E0,2.652000189E0
2.847349409E0,-4.369500279E-1,9.340050697E0,2.865000248E0
2.849856257E0,-3.079500198E-1,9.586050034E0,3.102000237E0
2.852362642E0,-1.140000075E-1,9.763950348E0,3.133950233E0
2.854869717E0,8.595000207E-2,9.787950516E0,3.019050121E0
2.857377486E0,3.109500110E-1,9.694050789E0,2.853000164E0
2.859884565E0,4.090500176E-1,9.559950829E0,2.832000017E0
2.862390950E0,4.740000367E-1,9.345000267E0,2.812950134E0
2.864898011E0,4.500000179E-1,9.164999962E0,2.740950108E0
2.867405780E0,3.520500064E-1,9.045000076E0,2.703000069E0
2.869912859E0,1.650000066E-1,9.025950432E0,2.575950146E0
2.872419013E0,-6.105000153E-2,9.153000832E0,2.379000187E0
2.874926088E0,-2.430000156E-1,9.330000877E0,2.346000195E0
2.877434011E0,-3.990000188E-1,9.342000008E0,2.583000183E0
2.879941080E0,-4.920000136E-1,9.297000885E0,2.881950140E0
2.882447233E0,-4.009500146E-1,9.406949997E0,3.102000237E0
2.884954308E0,-2.670000196E-1,9.661050797E0,3.210000038E0
2.887462093E0,-1.000500023E-1,9.807000160E0,3.184050083E0
2.889969172E0,6.195000187E-2,9.742050171E0,2.997000217E0
2.892475556E0,2.580000162E-1,9.634050369E0,2.833950043E0
2.894982631E0,3.829500079E-1,9.483000755E0,2.820000172E0
2.897490400E0,4.360500276E-1,9.340050697E0,2.832000017E0
2.899997479E0,4.210500121E-1,9.184050560E0,2.776950121E0
2.902503633E0,3.010500073E-1,9.127050400E0,2.590050220E0
2.905010708E0,9.600000083E-2,9.178950310E0,2.371950150E0
2.907518631E0,-1.380000114E-1,9.289950371E0,2.302950144E0
2.910025710E0,-3.199500144E-1,9.333000183E0,2.353049994E0
2.912531864E0,-4.399500191E-1,9.298950195E0,2.595000029E0
2.915038963E0,-4.609500170E-1,9.373050690E0,2.941950083E0
2.917546732E0,-3.390000165E-1,9.505050659E0,3.153000116E0
2.920053811E0,-1.860000044E-1,9.661050797E0,3.174000263E0
2.922560196E0,2.100000158E-2,9.748950005E0,3.055050135E0
2.925067280E0,2.299500108E-1,9.739950180E0,2.965950251E0
2.927575049E0,3.880500197E-1,9.577050209E0,2.830050230E0
2.930082128E0,4.789500237E-1,9.382950783E0,2.808000088E0
2.932588497E0,4.830000103E-1,9.175050735E0,2.808000088E0
2.935095341E0,3.850500286E-1,9.025950432E0,2.743050098E0
2.937603341E0,2.149500102E-1,8.995050430E0,2.479950190E0
2.940110333E0,4.950000439E-3,9.166950226E0,2.281050205E0
2.942616564E0,-2.100000083E-1,9.415950775E0,2.305050135E0
2.945123639E0,-3.970500231E-1,9.391950607E0,2.502000093E0
2.947631557E0,-4.800000191E-1,9.282000542E0,2.751000166E0
2.950138636E0,-4.660500288E-1,9.370950699E0,3.007050037E0
2.952644790E0,-3.150000274E-1,9.640950203E0,3.160050154E0
2.955151889E0,-1.210500076E-1,9.754050255E0,3.148050070E0
2.957659658E0,4.800000042E-2,9.787950516E0,3.055050135E0
2.960166737E0,2.389500141E-1,9.667950630E0,2.917950153E0
2.962673132E0,3.570000231E-1,9.511950493E0,2.881950140E0
2.965179976E0,4.159500301E-1,9.297000885E0,2.887050152E0
2.967687976E0,4.069500268E-1,9.157950401E0,2.842050076E0
2.970194987E0,2.920500040E-1,9.084000587E0,2.703000069E0
2.972701218E0,9.105000645E-2,9.100049973E0,2.518050194E0
2.975208293E0,-1.260000020E-1,9.237000465E0,2.344050169E0
2.977716216E0,-2.700000107E-1,9.400050163E0,2.401050091E0
2.980223295E0,-4.180500209E-1,9.388050079E0,2.631000042E0
2.982729525E0,-4.570500255E-1,9.342000008E0,2.853000164E0
2.985236523E0,-3.580500185E-1,9.486000061E0,3.037950039E0
2.987744523E0,-1.860000044E-1,9.691950798E0,3.070950031E0
2.990251372E0,-2.595000155E-2,9.804000854E0,3.082950115E0
2.992757756E0,1.480500102E-1,9.727950096E0,2.940000057E0
2.995264846E0,3.109500110E-1,9.607950211E0,2.788950205E0
2.997772615E0,4.260000288E-1,9.451950073E0,2.808000088E0
3.000279694E0,4.519500136E-1,9.258000374E0,2.851050138E0
3.002785843E0,4.140000343E-1,9.105000496E0,2.779050112E0
3.005292918E0,2.899500132E-1,9.040950775E0,2.566050053E0
3.007800841E0,4.500000179E-2,9.139050484E0,2.407950163E0
3.010307934E0,-1.570500135E-1,9.286950111E0,2.353049994E0
3.012814165E0,-3.370500207E-1,9.322950363E0,2.461050034E0
3.015321240E0,-4.420500100E-1,9.309000015E0,2.712000132E0
3.017829168E0,-4.369500279E-1,9.366000175E0,3.046950102E0
3.020336247E0,-3.559500277E-1,9.517050743E0,3.220050097E0
3.022842401E0,-1.759500057E-1,9.703950882E0,3.142950058E0
3.025349490E0,2.895000204E-2,9.778050423E0,3.021000147E0
3.027857259E0,2.179500163E-1,9.712950706E0,2.913000107E0
3.030364338E0,3.330000043E-1,9.523950577E0,2.808000088E0
3.032870478E0,4.240500331E-1,9.328050613E0,2.791050196E0
3.035377553E0,4.570500255E-1,9.193950653E0,2.779050112E0
3.037885476E0,3.640500307E-1,9.139050484E0,2.727000237E0
3.040392555E0,1.600500047E-1,9.153000832E0,2.431950092E0
3.042898785E0,-5.895000324E-2,9.289950371E0,2.236050129E0
3.045405860E0,-2.719500065E-1,9.403950691E0,2.332050085E0
3.047913783E0,-4.570500255E-1,9.301050186E0,2.559000015E0
3.050420862E0,-5.089499950E-1,9.220050812E0,2.818050146E0
3.052927016E0,-4.230000079E-1,9.421050072E0,3.082950115E0
3.055434091E0,-2.629500031E-1,9.675000191E0,3.202950239E0
3.057942091E0,-6.105000153E-2,9.771000862E0,3.157950163E0
3.060448939E0,1.309500039E-1,9.775950432E0,2.997000217E0
3.062955314E0,3.349500299E-1,9.670050621E0,2.872950077E0
3.065462389E0,4.380000234E-1,9.522000313E0,2.872950077E0
3.067970158E0,4.399500191E-1,9.282000542E0,2.851050138E0
3.070477237E0,4.330500066E-1,9.072000504E0,2.748000145E0
3.072983391E0,3.040500283E-1,9.001950264E0,2.602050066E0
3.075490466E0,1.030500084E-1,9.057000160E0,2.386950016E0
3.077998360E0,-9.705000371E-2,9.217950821E0,2.262000084E0
3.080505439E0,-2.890500128E-1,9.376049995E0,2.413050175E0
3.083011670E0,-4.039500058E-1,9.381000519E0,2.688000202E0
3.085518644E0,-4.489500225E-1,9.366000175E0,2.947050095E0
3.088026644E0,-3.580500185E-1,9.487950325E0,3.069000244E0
3.090533492E0,-2.029500157E-1,9.703950882E0,3.141000032E0
3.093039892E0,-3.000000119E-2,9.823050499E0,3.138000250E0
3.095546967E0,1.510500014E-1,9.727950096E0,3.012000084E0
3.098054736E0,2.800500095E-1,9.550050735E0,2.853000164E0
3.100561824E0,3.690000176E-1,9.402000427E0,2.853000164E0
3.103067978E0,4.140000343E-1,9.238950729E0,2.899050236E0
3.105575284E0,3.570000231E-1,9.139050484E0,2.751000166E0
3.108082967E0,2.340000123E-1,9.085950851E0,2.524950027E0
3.110590046E0,0.000000000E0,9.157950401E0,2.346000195E0
3.113096277E0,-1.720500141E-1,9.346950531E0,2.365050077E0
3.115603275E0,-3.340500295E-1,9.406949997E0,2.499000072E0
3.118111270E0,-4.450500309E-1,9.337050438E0,2.727000237E0
3.120618118E0,-4.090500176E-1,9.402000427E0,2.968050241E0
3.123124503E0,-2.980500162E-1,9.555000305E0,3.079050064E0
3.125631578E0,-1.189500093E-1,9.739950180E0,3.058950186E0
3.128139347E0,7.905000448E-2,9.780000687E0,2.980050087E0
3.130646426E0,2.700000107E-1,9.667950630E0,2.860950232E0
3.133152810E0,3.850500286E-1,9.460050583E0,2.784000158E0
3.135659885E0,4.519500136E-1,9.250950813E0,2.773950100E0
3.138167655E0,4.570500255E-1,9.145950317E0,2.800950050E0
3.140674734E0,3.660000265E-1,9.091050148E0,2.679000139E0
3.143180887E0,1.459500045E-1,9.093000412E0,2.437050104E0
3.145687962E0,-7.800000161E-2,9.262950897E0,2.311950207E0
3.148195885E0,-2.479500175E-1,9.352050781E0,2.443950176E0
3.150702950E0,-4.210500121E-1,9.286950111E0,2.655000210E0
3.153209181E0,-4.680000246E-1,9.297000885E0,2.836950064E0
3.155716179E0,-3.889500201E-1,9.526950836E0,3.085950136E0
3.158224179E0,-2.359500080E-1,9.709050179E0,3.193050146E0
3.160731027E0,-7.304999977E-2,9.780000687E0,3.094950199E0
3.163237412E0,1.579500139E-1,9.744000435E0,2.983050108E0
3.165744477E0,3.210000098E-1,9.675000191E0,2.877000093E0
3.168252246E0,3.810000122E-1,9.463950157E0,2.833950043E0
3.170759325E0,4.140000343E-1,9.202950478E0,2.746050119E0
3.173265479E0,3.730500042E-1,9.120000839E0,2.700000048E0
3.175772549E0,2.419500053E-1,9.163050652E0,2.599950075E0
3.178280472E0,1.395000052E-2,9.193950653E0,2.446050167E0
3.180787551E0,-2.070000172E-1,9.268050194E0,2.314950228E0
3.183293763E0,-3.630000055E-1,9.316050529E0,2.482050180E0
3.185800838E0,-4.470000267E-1,9.337050438E0,2.767050028E0
3.188308761E0,-4.330500066E-1,9.400050163E0,2.980050087E0
3.190815854E0,-3.180000186E-1,9.570000648E0,3.097950220E0
3.193322007E0,-1.399500072E-1,9.700950623E0,3.145950079E0
3.195829082E0,6.405000389E-2,9.742050171E0,3.133950233E0
3.198336852E0,2.539499998E-1,9.658050537E0,2.973000050E0
3.200843935E0,4.039500058E-1,9.567000389E0,2.812950134E0
3.203350320E0,4.860000312E-1,9.366000175E0,2.812950134E0
3.205857395E0,4.950000346E-1,9.172050476E0,2.785950184E0
3.208365164E0,4.020000100E-1,9.012000084E0,2.614050150E0
3.210872243E0,2.179500163E-1,9.064050674E0,2.394000053E0
3.213378397E0,0.000000000E0,9.225000381E0,2.281050205E0
3.215885472E0,-2.100000083E-1,9.354000092E0,2.334000111E0
3.218393395E0,-4.009500146E-1,9.340050697E0,2.509050131E0
3.220900474E0,-4.710000157E-1,9.373050690E0,2.776950121E0
3.223406628E0,-4.420500100E-1,9.495000839E0,3.049950123E0
3.225913732E0,-3.180000186E-1,9.640950203E0,3.178950071E0
3.228421501E0,-1.519500017E-1,9.703950882E0,3.142950058E0
3.230928580E0,6.405000389E-2,9.744000435E0,3.081000090E0
3.233434946E0,2.460000068E-1,9.622050285E0,2.944050074E0
3.235942020E0,3.730500042E-1,9.433050156E0,2.844000101E0
3.238449790E0,4.620000124E-1,9.234000206E0,2.880000114E0
3.240956883E0,4.260000288E-1,9.117000580E0,2.853000164E0
3.243463037E0,2.989500165E-1,9.109950066E0,2.688000202E0
3.245970111E0,9.600000083E-2,9.175050735E0,2.418000221E0
3.248478049E0,-1.309500039E-1,9.342000008E0,2.286000013E0
3.250985127E0,-3.250500262E-1,9.424050331E0,2.439000130E0
3.253491281E0,-4.660500288E-1,9.304050446E0,2.628000021E0
3.255998346E0,-4.639500082E-1,9.334950447E0,2.860950232E0
3.258506346E0,-3.150000274E-1,9.562050819E0,3.052050114E0
3.261013425E0,-1.720500141E-1,9.727950096E0,3.100050211E0
3.263519569E0,3.299999982E-2,9.768000603E0,2.989950180E0
3.266026644E0,2.580000162E-1,9.724950790E0,2.827050209E0
3.268534413E0,3.900000155E-1,9.603000641E0,2.776950121E0
3.271041521E0,4.480500221E-1,9.382950783E0,2.824950218E0
3.273547906E0,4.740000367E-1,9.154950142E0,2.806050062E0
3.276054750E0,3.970500231E-1,9.079050064E0,2.736000061E0
3.278562755E0,1.870500147E-1,9.052050591E0,2.596950054E0
3.281069757E0,-5.700000376E-2,9.139050484E0,2.371950150E0
3.283575988E0,-2.430000156E-1,9.265950203E0,2.347950220E0
3.286083063E0,-4.129500091E-1,9.333000183E0,2.575950146E0
3.288590986E0,-4.800000191E-1,9.334950447E0,2.877000093E0
3.291098065E0,-4.420500100E-1,9.402000427E0,3.097950220E0
3.293604218E0,-3.010500073E-1,9.625050545E0,3.184050083E0
3.296111293E0,-1.240500063E-1,9.759000778E0,3.174000263E0
3.298619063E0,7.395000011E-2,9.792000771E0,3.052050114E0
3.301126142E0,2.680500150E-1,9.675000191E0,2.827050209E0
3.303632526E0,3.760500252E-1,9.510000229E0,2.809950113E0
3.306139370E0,4.639500082E-1,9.349050522E0,2.845950127E0
3.308647375E0,4.620000124E-1,9.217950821E0,2.812950134E0
3.311154377E0,3.520500064E-1,9.145950317E0,2.619000196E0
3.313660608E0,1.170000061E-1,9.175050735E0,2.371950150E0
3.316167702E0,-1.090500057E-1,9.285000801E0,2.296050072E0
3.318675625E0,-3.079500198E-1,9.337050438E0,2.350950003E0
3.321182704E0,-4.660500288E-1,9.310950279E0,2.563950062E0
3.323688858E0,-4.879500270E-1,9.370950699E0,2.911050081E0
3.326196000E0,-4.210500121E-1,9.493050575E0,3.169950247E0
3.328703923E0,-2.550000250E-1,9.630000114E0,3.169950247E0
3.331211002E0,-3.795000166E-2,9.747000694E0,3.114000082E0
3.333717170E0,1.990500093E-1,9.795000076E0,3.012000084E0
3.336224245E0,3.640500307E-1,9.598050117E0,2.868000031E0
3.338732014E0,4.639500082E-1,9.373050690E0,2.821950197E0
3.341239093E0,4.930500090E-1,9.177000046E0,2.830050230E0
3.343745477E0,4.210500121E-1,9.088050842E0,2.770050049E0
3.346252322E0,2.700000107E-1,9.073950768E0,2.527950048E0
3.348760265E0,1.695000008E-2,9.160050392E0,2.308050156E0
3.351267344E0,-1.740000099E-1,9.366000175E0,2.274000168E0
3.353773574E0,-3.510000110E-1,9.400050163E0,2.497050047E0
3.356280634E0,-4.800000191E-1,9.309000015E0,2.712000132E0
3.358788557E0,-4.710000157E-1,9.381000519E0,2.941950083E0
3.361295636E0,-3.250500262E-1,9.598050117E0,3.106950045E0
3.363801790E0,-1.600500047E-1,9.768000603E0,3.165000200E0
3.366308875E0,5.700000376E-2,9.782999992E0,3.061950207E0
3.368816644E0,2.389500141E-1,9.694050789E0,2.913000107E0
3.371323699E0,3.610500097E-1,9.529050827E0,2.901000023E0
3.373830084E0,4.309500158E-1,9.337050438E0,2.893950224E0
3.376336928E0,4.210500121E-1,9.157950401E0,2.803050041E0
3.378844928E0,3.229500055E-1,9.097949982E0,2.692950010E0
3.381351930E0,1.150500029E-1,9.103050232E0,2.535000086E0
3.383858161E0,-1.050000042E-1,9.190950394E0,2.391000032E0
3.386365236E0,-2.980500162E-1,9.352050781E0,2.406000137E0
3.388873159E0,-4.399500191E-1,9.400050163E0,2.599950075E0
3.391380238E0,-4.680000246E-1,9.321000099E0,2.851050138E0
3.393886468E0,-4.009500146E-1,9.454950333E0,3.037950039E0
3.396393543E0,-2.359500080E-1,9.676950455E0,3.105000257E0
3.398901471E0,-2.595000155E-2,9.808950424E0,3.106950045E0
3.401408550E0,1.770000011E-1,9.759000778E0,2.995050192E0
3.403914704E0,3.250500262E-1,9.598050117E0,2.824950218E0
3.406421793E0,4.279500246E-1,9.438000679E0,2.808000088E0
3.408929562E0,4.740000367E-1,9.294000626E0,2.803050041E0
3.411436641E0,4.639500082E-1,9.169950485E0,2.760000229E0
3.413942795E0,2.920500040E-1,9.036000252E0,2.578050137E0
3.416449870E0,7.200000435E-2,9.103050232E0,2.398950100E0
3.418957793E0,-1.399500072E-1,9.256050110E0,2.359950066E0
3.421464872E0,-2.910000086E-1,9.364050865E0,2.443950176E0
3.423971098E0,-4.470000267E-1,9.313050270E0,2.667000055E0
3.426478173E0,-4.399500191E-1,9.370950699E0,2.949000120E0
3.428986096E0,-3.540000021E-1,9.535950661E0,3.154950142E0
3.431493175E0,-1.879500151E-1,9.676950455E0,3.145950079E0
3.433999329E0,7.050000131E-3,9.790050507E0,3.085950136E0
3.436506404E0,2.059500068E-1,9.754050255E0,2.964000225E0
3.439014173E0,3.420000076E-1,9.486000061E0,2.818050146E0
3.441521242E0,3.850500286E-1,9.270000458E0,2.748000145E0
3.444027396E0,4.309500158E-1,9.190950394E0,2.767050028E0
3.446534701E0,3.589500189E-1,9.199050903E0,2.703000069E0
3.449042394E0,1.579500139E-1,9.164999962E0,2.506050110E0
3.451549473E0,-7.800000161E-2,9.211050034E0,2.344050169E0
3.454055703E0,-2.839500010E-1,9.366000175E0,2.410950184E0
3.456562798E0,-4.470000267E-1,9.357000351E0,2.607000113E0
3.459070721E0,-5.310000181E-1,9.282000542E0,2.760000229E0
3.461577800E0,-4.330500066E-1,9.412050247E0,2.983050108E0
3.464084031E0,-2.460000068E-1,9.639000893E0,3.162000179E0
3.466591106E0,-4.695000127E-2,9.771000862E0,3.157950163E0
3.469099029E0,1.459500045E-1,9.766050339E0,3.055050135E0
3.471605877E0,3.690000176E-1,9.694050789E0,2.887050152E0
3.474112262E0,4.789500237E-1,9.529050827E0,2.842050076E0
3.476619337E0,5.119500160E-1,9.249000549E0,2.788950205E0
3.479127106E0,4.620000124E-1,9.103050232E0,2.712000132E0
3.481634156E0,3.090000153E-1,9.049950600E0,2.578050137E0
3.484140310E0,1.170000061E-1,9.091050148E0,2.431950092E0
3.486647385E0,-1.360500008E-1,9.217950821E0,2.341050148E0
3.489155308E0,-3.130500019E-1,9.340050697E0,2.383949995E0
3.491662401E0,-4.540500343E-1,9.325050354E0,2.619000196E0
3.494168632E0,-4.830000103E-1,9.346950531E0,2.913000107E0
3.496675706E0,-3.919500113E-1,9.507000923E0,3.091050148E0
3.499183611E0,-2.530499995E-1,9.732000351E0,3.189000130E0
3.501690690E0,-4.695000127E-2,9.832950592E0,3.193050146E0
3.504196843E0,1.600500047E-1,9.760950089E0,3.057000160E0
3.506703908E0,2.869500220E-1,9.574050903E0,2.893950224E0
3.509211678E0,3.660000265E-1,9.397050858E0,2.842050076E0
3.511718756E0,4.090500176E-1,9.258000374E0,2.842050076E0
3.514224891E0,3.949500322E-1,9.145950317E0,2.722050190E0
3.516731966E0,2.440500110E-1,9.081000328E0,2.527950048E0
3.519239889E0,1.905000024E-2,9.175050735E0,2.383949995E0
3.521747040E0,-1.639500111E-1,9.370950699E0,2.394000053E0
3.524253194E0,-3.340500295E-1,9.418950081E0,2.461050034E0
3.526760269E0,-4.249500334E-1,9.342000008E0,2.626050234E0
3.529268192E0,-4.300500154E-1,9.390000343E0,2.917950153E0
3.531775257E0,-3.250500262E-1,9.526950836E0,3.081000090E0
3.534281488E0,-1.210500076E-1,9.685050011E0,3.064050198E0
3.536788486E0,8.595000207E-2,9.782999992E0,3.016050100E0
3.539296486E0,2.680500150E-1,9.703950882E0,2.880000114E0
3.541803334E0,3.610500097E-1,9.471000671E0,2.772000074E0
3.544309719E0,4.240500331E-1,9.234000206E0,2.728950024E0
3.546816817E0,4.399500191E-1,9.154950142E0,2.776950121E0
3.549324587E0,3.400500119E-1,9.108000755E0,2.722050190E0
3.551831666E0,1.219500080E-1,9.100049973E0,2.515950203E0
3.554337809E0,-9.300000221E-2,9.238950729E0,2.374950171E0
3.556844884E0,-2.770500183E-1,9.382950783E0,2.430000067E0
3.559352807E0,-4.350000322E-1,9.310950279E0,2.623950243E0
3.561859886E0,-4.999500215E-1,9.277950287E0,2.821950197E0
3.564366117E0,-4.039500058E-1,9.502950668E0,3.070950031E0
3.566873192E0,-2.530499995E-1,9.699000359E0,3.210000038E0
3.569381115E0,-6.405000389E-2,9.778050423E0,3.166950226E0
3.571887963E0,1.650000066E-1,9.748950005E0,3.004050255E0
3.574394348E0,3.420000076E-1,9.646050453E0,2.824950218E0
3.576901423E0,4.069500268E-1,9.481050491E0,2.796000242E0
3.579409192E0,4.450500309E-1,9.226950645E0,2.772000074E0
3.581916266E0,4.000500143E-1,9.145950317E0,2.740950108E0
3.584422420E0,2.440500110E-1,9.109950066E0,2.650050163E0
3.586929495E0,2.100000158E-2,9.160050392E0,2.466000080E0
3.589437506E0,-1.930500120E-1,9.262950897E0,2.334000111E0
3.591944585E0,-3.540000021E-1,9.310950279E0,2.386950016E0
3.594450739E0,-4.780500233E-1,9.322950363E0,2.623950243E0
3.596957814E0,-4.590000212E-1,9.385050774E0,2.976000071E0
3.599465746E0,-3.250500262E-1,9.582000732E0,3.184050083E0
3.601972825E0,-1.620000005E-1,9.697050095E0,3.184050083E0
3.604479055E0,2.400000021E-2,9.739950180E0,3.124050140E0
3.606986044E0,2.340000123E-1,9.676950455E0,2.932950258E0
3.609494044E0,3.949500322E-1,9.582000732E0,2.791050196E0
3.612000893E0,4.789500237E-1,9.402000427E0,2.824950218E0
3.614507272E0,4.759500325E-1,9.164999962E0,2.821950197E0
3.617014347E0,4.039500058E-1,9.024000168E0,2.700000048E0
3.619522111E0,2.340000123E-1,9.045000076E0,2.451000214E0
3.622029190E0,0.000000000E0,9.201000214E0,2.329050064E0
3.624535363E0,-2.050500065E-1,9.354000092E0,2.310000181E0
3.627042438E0,-3.889500201E-1,9.349050522E0,2.451000214E0
3.629550361E0,-4.660500288E-1,9.325050354E0,2.760000229E0
3.632057440E0,-4.399500191E-1,9.498000145E0,3.085950136E0
3.634563671E0,-2.959500253E-1,9.667950630E0,3.213000059E0
3.637070669E0,-1.429500133E-1,9.723000526E0,3.126000166E0
3.639578669E0,8.100000024E-2,9.742050171E0,3.046950102E0
3.642085517E0,2.340000123E-1,9.643950462E0,2.911050081E0
3.644591902E0,3.490500152E-1,9.436050415E0,2.806050062E0
3.647098977E0,4.279500246E-1,9.280050278E0,2.827050209E0
3.649606746E0,4.140000343E-1,9.130949974E0,2.824950218E0
3.652113835E0,3.060000241E-1,9.072000504E0,2.695050240E0
3.654620219E0,7.605000585E-2,9.145950317E0,2.415000200E0
3.657127294E0,-1.189500093E-1,9.352050781E0,2.299950123E0
3.659635005E0,-3.060000241E-1,9.460050583E0,2.451000214E0
3.662142160E0,-4.680000246E-1,9.313050270E0,2.640000105E0
3.664648314E0,-4.830000103E-1,9.282000542E0,2.856000185E0
3.667155172E0,-3.679500222E-1,9.547950745E0,3.064050198E0
3.669661963E0,-1.840500087E-1,9.742050171E0,3.133950233E0
3.672170389E0,1.905000024E-2,9.792000771E0,3.058950186E0
3.674676622E0,2.250000089E-1,9.685050011E0,2.868000031E0
3.677183620E0,3.810000122E-1,9.589050293E0,2.818050146E0
3.679691634E0,4.710000157E-1,9.403950691E0,2.830050230E0
3.682198482E0,4.789500237E-1,9.187050819E0,2.815050125E0
3.684704867E0,4.120500088E-1,9.088050842E0,2.736000061E0
3.687211962E0,2.200500071E-1,9.049950600E0,2.595000029E0
3.689719731E0,-2.100000158E-2,9.151050568E0,2.427000046E0
3.692226810E0,-2.170500159E-1,9.306000710E0,2.382000208E0
3.694732968E0,-3.850500286E-1,9.325050354E0,2.521050215E0
3.697240273E0,-4.680000246E-1,9.309000015E0,2.842050076E0
3.699747966E0,-4.420500100E-1,9.433050156E0,3.091050148E0
3.702255050E0,-3.030000031E-1,9.658050537E0,3.153000116E0
3.704761280E0,-1.360500008E-1,9.792000771E0,3.129000187E0
3.707268278E0,6.405000389E-2,9.775950432E0,3.049950123E0
3.709776297E0,2.700000107E-1,9.619950294E0,2.865000248E0
3.712283146E0,4.000500143E-1,9.466950417E0,2.796000242E0
3.714789530E0,4.759500325E-1,9.345000267E0,2.824950218E0
3.717296576E0,4.740000367E-1,9.253950119E0,2.803050041E0
3.719804345E0,3.160500228E-1,9.153000832E0,2.638050079E0
3.722311424E0,9.600000083E-2,9.166950226E0,2.406000137E0
3.724817805E0,-1.309500039E-1,9.265950203E0,2.317050219E0
3.727324880E0,-3.439500034E-1,9.346950531E0,2.359950066E0
3.729832649E0,-4.950000346E-1,9.318000793E0,2.575950146E0
3.732339728E0,-5.239500403E-1,9.364050865E0,2.868000031E0
3.734845882E0,-4.090500176E-1,9.471000671E0,3.130950212E0
3.737352957E0,-2.170500159E-1,9.607950211E0,3.178950071E0
3.739860880E0,-2.295000106E-2,9.735000610E0,3.114000082E0
3.742367959E0,2.179500163E-1,9.780000687E0,3.009000063E0
3.744874190E0,4.120500088E-1,9.634050369E0,2.836950064E0
3.747381188E0,4.789500237E-1,9.403950691E0,2.797950029E0
3.749889188E0,5.170500278E-1,9.175050735E0,2.796000242E0
3.752396026E0,4.600500166E-1,9.055050850E0,2.746050119E0
3.754902410E0,2.749500275E-1,9.021000862E0,2.545050144E0
3.757409485E0,2.100000158E-2,9.189000130E0,2.290950060E0
3.759917255E0,-1.879500151E-1,9.366000175E0,2.253000021E0
3.762424334E0,-3.700500131E-1,9.352050781E0,2.473050117E0
3.764930487E0,-5.310000181E-1,9.285000801E0,2.719050169E0
3.767437562E0,-4.800000191E-1,9.390000343E0,2.964000225E0
3.769945490E0,-3.300000131E-1,9.606000900E0,3.172050238E0
3.772452569E0,-1.720500141E-1,9.763950348E0,3.189000130E0
3.774958800E0,5.700000376E-2,9.756000519E0,3.073950052E0
3.777465798E0,2.460000068E-1,9.706050873E0,2.916000128E0
3.779973798E0,3.760500252E-1,9.558000565E0,2.889000177E0
3.782480862E0,4.260000288E-1,9.333000183E0,2.884950161E0
3.784987016E0,4.260000288E-1,9.148050308E0,2.806050062E0
3.787494091E0,3.109500110E-1,9.120000839E0,2.727000237E0
3.790001865E0,1.099500060E-1,9.100049973E0,2.527950048E0
3.792508944E0,-1.140000075E-1,9.217950821E0,2.347950220E0
3.795015319E0,-2.939999998E-1,9.345000267E0,2.335950136E0
3.797522394E0,-4.300500154E-1,9.381000519E0,2.583000183E0
3.800030163E0,-4.729500115E-1,9.354000092E0,2.857950211E0
3.802537242E0,-3.820500076E-1,9.469050407E0,3.033000231E0
3.805043396E0,-2.190000117E-1,9.688950539E0,3.097950220E0
3.807550470E0,-2.595000155E-2,9.792000771E0,3.124050140E0
3.810058394E0,1.699500084E-1,9.732000351E0,2.980050087E0
3.812565472E0,3.540000021E-1,9.574050903E0,2.791050196E0
3.815071703E0,4.519500136E-1,9.414000511E0,2.760000229E0
3.817578701E0,5.029500127E-1,9.273000717E0,2.836950064E0
3.820086701E0,4.789500237E-1,9.142950058E0,2.784000158E0
3.822593549E0,3.060000241E-1,9.061950684E0,2.587950230E0
3.825099925E0,8.100000024E-2,9.133950233E0,2.407950163E0
3.827607000E0,-1.669500023E-1,9.270000458E0,2.347950220E0
3.830114769E0,-3.700500131E-1,9.325050354E0,2.425050020E0
3.832621844E0,-4.780500233E-1,9.285000801E0,2.626050234E0
3.835127998E0,-4.780500233E-1,9.388050079E0,2.980050087E0
3.837635073E0,-3.559500277E-1,9.594000816E0,3.177000046E0
3.840142977E0,-2.100000083E-1,9.715950012E0,3.169950247E0
3.842650056E0,2.100000158E-2,9.768000603E0,3.081000090E0
3.845156287E0,2.299500108E-1,9.703950882E0,2.920950174E0
3.847663285E0,3.640500307E-1,9.473999977E0,2.785950184E0
3.850171285E0,4.360500276E-1,9.273000717E0,2.782050133E0
3.852678364E0,4.669500291E-1,9.175050735E0,2.785950184E0
3.855184518E0,3.829500079E-1,9.184050560E0,2.728950024E0
3.857691592E0,1.699500084E-1,9.177000046E0,2.536950111E0
3.860199362E0,-7.605000585E-2,9.229950905E0,2.308050156E0
3.862706441E0,-3.180000186E-1,9.357000351E0,2.355000019E0
3.865212825E0,-4.800000191E-1,9.321000099E0,2.547000170E0
3.867719900E0,-5.310000181E-1,9.321000099E0,2.763000250E0
3.870227654E0,-4.369500279E-1,9.438000679E0,3.000000238E0
3.872734656E0,-2.599500120E-1,9.625050545E0,3.165000200E0
3.875240902E0,-6.105000153E-2,9.748950005E0,3.169950247E0
3.877747977E0,2.149500102E-1,9.775950432E0,3.016050100E0
3.880255900E0,3.900000155E-1,9.682050705E0,2.821950197E0
3.882762979E0,4.999500215E-1,9.505050659E0,2.809950113E0
3.885269210E0,5.050500035E-1,9.229950905E0,2.782050133E0
3.887776208E0,4.620000124E-1,9.057000160E0,2.716950178E0
3.890284208E0,2.899500132E-1,9.021000862E0,2.587950230E0
3.892791056E0,5.700000376E-2,9.100049973E0,2.413050175E0
3.895297441E0,-1.669500023E-1,9.253950119E0,2.329050064E0
3.897804516E0,-3.490500152E-1,9.333000183E0,2.430000067E0
3.900312285E0,-5.020500422E-1,9.334950447E0,2.679000139E0
3.902819368E0,-5.160000324E-1,9.381000519E0,2.925000191E0
3.905325522E0,-3.850500286E-1,9.543000221E0,3.112050056E0
3.907832597E0,-2.170500159E-1,9.715950012E0,3.205050230E0
3.910340520E0,-2.100000158E-2,9.780000687E0,3.177000046E0
3.912847599E0,1.890000105E-1,9.673050880E0,3.037950039E0
3.915353829E0,3.450000286E-1,9.529050827E0,2.865000248E0
3.917860817E0,4.669500291E-1,9.438000679E0,2.821950197E0
3.920368817E0,4.999500215E-1,9.298950195E0,2.856000185E0
3.922875896E0,4.000500143E-1,9.148050308E0,2.719050169E0
3.925382127E0,2.200500071E-1,9.084000587E0,2.491950035E0
3.927889125E0,1.950000064E-3,9.202950478E0,2.335950136E0
3.930396894E0,-2.149500102E-1,9.390000343E0,2.370000124E0
3.932903973E0,-4.060500264E-1,9.385050774E0,2.451000214E0
3.935410353E0,-5.190000534E-1,9.313050270E0,2.652000189E0
3.937917428E0,-4.399500191E-1,9.402000427E0,2.959050179E0
3.940425197E0,-3.100500107E-1,9.583950043E0,3.112050056E0
3.942932290E0,-1.240500063E-1,9.747000694E0,3.114000082E0
3.945438444E0,1.050000042E-1,9.759000778E0,3.043050051E0
3.947945519E0,3.010500073E-1,9.652950287E0,2.865000248E0
3.950453442E0,3.949500322E-1,9.403950691E0,2.800950050E0
3.952960521E0,4.710000157E-1,9.213000298E0,2.763000250E0
3.955466752E0,4.710000157E-1,9.141000748E0,2.782050133E0
3.957973750E0,3.490500152E-1,9.097949982E0,2.727000237E0
3.960481750E0,1.080000028E-1,9.093000412E0,2.499000072E0
3.962988598E0,-1.260000020E-1,9.250950813E0,2.355000019E0
3.965494982E0,-3.460500240E-1,9.366000175E0,2.427000046E0
3.968002053E0,-4.900500178E-1,9.333000183E0,2.619000196E0
3.970509822E0,-4.969500303E-1,9.330000877E0,2.856000185E0
3.973016901E0,-3.769500256E-1,9.543000221E0,3.097950220E0
3.975523055E0,-1.909500062E-1,9.699000359E0,3.217050076E0
3.978030130E0,9.000000544E-3,9.796950340E0,3.129000187E0
3.980538053E0,2.320500165E-1,9.736950874E0,2.937000036E0
3.983045132E0,3.850500286E-1,9.619950294E0,2.797950029E0
3.985551363E0,4.480500221E-1,9.430950165E0,2.788950205E0
3.988058438E0,4.710000157E-1,9.217950821E0,2.776950121E0
3.990566361E0,4.069500268E-1,9.160050392E0,2.686050177E0
3.993073440E0,1.770000011E-1,9.154950142E0,2.602050066E0
3.995579671E0,-6.405000389E-2,9.213000298E0,2.478000164E0
3.998086669E0,-2.959500253E-1,9.285000801E0,2.359950066E0
4.000594669E0,-4.489500225E-1,9.298950195E0,2.482050180E0
4.003101540E0,-5.359500051E-1,9.309000015E0,2.740950108E0
4.005607694E0,-4.780500233E-1,9.414000511E0,3.016050100E0
4.008114999E0,-3.300000131E-1,9.558000565E0,3.142950058E0
4.010622769E0,-1.000500023E-1,9.720000267E0,3.196050167E0
4.013129848E0,9.795000404E-2,9.772950172E0,3.153000116E0
4.015636001E0,3.180000186E-1,9.700950623E0,2.901000023E0
4.018143062E0,4.669500291E-1,9.613050461E0,2.764950037E0
4.020650985E0,5.290500522E-1,9.402000427E0,2.785950184E0
4.023158064E0,5.070000291E-1,9.175050735E0,2.784000158E0
4.025664309E0,3.850500286E-1,9.007050514E0,2.620950222E0
4.028171307E0,1.720500141E-1,9.049950600E0,2.374950171E0
4.030679307E0,-5.895000324E-2,9.274950027E0,2.290950060E0
4.033186396E0,-2.700000107E-1,9.388050079E0,2.338950157E0
4.035692550E0,-4.590000212E-1,9.337050438E0,2.473050117E0
4.038199625E0,-4.900500178E-1,9.294000626E0,2.764950037E0
4.040707394E0,-4.129500091E-1,9.460050583E0,3.097950220E0
4.043214473E0,-2.839500010E-1,9.664950371E0,3.208050251E0
4.045720627E0,-7.605000585E-2,9.795000076E0,3.157950163E0
4.048227702E0,1.290000081E-1,9.782999992E0,3.046950102E0
4.050735625E0,2.899500132E-1,9.571950912E0,2.916000128E0
4.053242704E0,3.900000155E-1,9.349050522E0,2.809950113E0
4.055748935E0,4.140000343E-1,9.222000122E0,2.832000017E0
4.058256010E0,4.140000343E-1,9.157950401E0,2.832000017E0
4.060763933E0,2.509500086E-1,9.112050056E0,2.674050093E0
4.063271012E0,4.950000439E-3,9.163050652E0,2.386950016E0
4.065777227E0,-2.070000172E-1,9.337050438E0,2.281050205E0
4.068284225E0,-3.700500131E-1,9.451950073E0,2.467950106E0
4.070792225E0,-4.920000136E-1,9.352050781E0,2.676000118E0
4.073299088E0,-4.590000212E-1,9.364050865E0,2.901000023E0
4.075805242E0,-3.199500144E-1,9.559950829E0,3.094950199E0
4.078312568E0,-1.120500043E-1,9.766050339E0,3.169950247E0
4.080820337E0,9.300000221E-2,9.819000244E0,3.045000076E0
4.083327416E0,2.970000207E-1,9.744000435E0,2.832000017E0
4.085833556E0,4.210500121E-1,9.567000389E0,2.803050041E0
4.088340631E0,4.639500082E-1,9.330000877E0,2.845950127E0
4.090848554E0,4.669500291E-1,9.153000832E0,2.791050196E0
4.093355633E0,3.780000210E-1,9.085950851E0,2.686050177E0
4.095861854E0,1.699500084E-1,9.052050591E0,2.527950048E0
4.098368929E0,-9.000000358E-2,9.141000748E0,2.374950171E0
4.100876852E0,-2.700000107E-1,9.280050278E0,2.347950220E0
4.103383685E0,-4.230000079E-1,9.357000351E0,2.557050228E0
4.105890070E0,-4.920000136E-1,9.337050438E0,2.872950077E0
4.108397144E0,-4.369500279E-1,9.424050331E0,3.081000090E0
4.110904914E0,-2.770500183E-1,9.639000893E0,3.160050154E0
4.113411993E0,-9.000000358E-2,9.807000160E0,3.124050140E0
4.115918147E0,1.030500084E-1,9.775950432E0,3.028050184E0
4.118425452E0,2.939999998E-1,9.631950378E0,2.869950056E0
4.120933221E0,4.039500058E-1,9.454950333E0,2.818050146E0
4.123440223E0,4.570500255E-1,9.340050697E0,2.875050068E0
4.125946454E0,4.360500276E-1,9.225000381E0,2.796000242E0
4.128453529E0,2.899500132E-1,9.145950317E0,2.571000099E0
4.130961452E0,6.195000187E-2,9.184050560E0,2.379000187E0
4.133468531E0,-1.500000060E-1,9.318000793E0,2.362950087E0
4.135974767E0,-3.340500295E-1,9.357000351E0,2.430000067E0
4.138481765E0,-4.759500325E-1,9.273000717E0,2.602050066E0
4.140989765E0,-4.759500325E-1,9.352050781E0,2.880000114E0
4.143496603E0,-3.490500152E-1,9.535950661E0,3.145950079E0
4.146002988E0,-1.999500096E-1,9.687000275E0,3.177000046E0
4.148510063E0,2.895000204E-2,9.711000443E0,3.081000090E0
4.151017837E0,2.490000129E-1,9.723000526E0,2.985000134E0
4.153524916E0,4.039500058E-1,9.577050209E0,2.839050055E0
4.156031070E0,4.830000103E-1,9.402000427E0,2.770050049E0
4.158538121E0,4.950000346E-1,9.211050034E0,2.751000166E0
4.161046044E0,3.919500113E-1,9.057000160E0,2.691000223E0
4.163553123E0,1.990500093E-1,9.009000778E0,2.514000177E0
4.166059353E0,-1.605000161E-2,9.133950233E0,2.284050226E0
4.168566423E0,-2.050500065E-1,9.376049995E0,2.286000013E0
4.171074346E0,-3.820500076E-1,9.406949997E0,2.506050110E0
4.173581425E0,-5.070000291E-1,9.292050362E0,2.722050190E0
4.176087579E0,-4.450500309E-1,9.358950615E0,2.965950251E0
4.178594654E0,-3.060000241E-1,9.577050209E0,3.141000032E0
4.181102423E0,-1.210500076E-1,9.772950172E0,3.217050076E0
4.183609502E0,8.400000632E-2,9.819000244E0,3.112050056E0
4.186115887E0,2.659500241E-1,9.675000191E0,2.932950258E0
4.188622962E0,3.760500252E-1,9.493050575E0,2.865000248E0
4.191130727E0,4.020000100E-1,9.301050186E0,2.851050138E0
4.193637806E0,4.120500088E-1,9.169950485E0,2.788950205E0
4.196143959E0,2.899500132E-1,9.109950066E0,2.674050093E0
4.198651034E0,8.595000207E-2,9.105000496E0,2.514000177E0
4.201158957E0,-1.170000061E-1,9.184050560E0,2.362950087E0
4.203666036E0,-2.980500162E-1,9.376049995E0,2.379000187E0
4.206172267E0,-4.060500264E-1,9.373050690E0,2.569050074E0
4.208679265E0,-4.570500255E-1,9.391950607E0,2.830050230E0
4.211187265E0,-3.630000055E-1,9.499950409E0,3.045000076E0
4.213694344E0,-1.930500120E-1,9.700950623E0,3.112050056E0
4.216200497E0,-3.495000303E-2,9.799950600E0,3.106950045E0
4.218707572E0,1.789500117E-1,9.712950706E0,2.973000050E0
4.221215342E0,3.250500262E-1,9.526950836E0,2.779050112E0
4.223722435E0,4.360500276E-1,9.421050072E0,2.788950205E0
4.226228589E0,4.639500082E-1,9.304050446E0,2.815050125E0
4.228735664E0,4.279500246E-1,9.160050392E0,2.779050112E0
4.231243582E0,2.539499998E-1,9.052050591E0,2.578050137E0
4.233750661E0,4.500000179E-2,9.120000839E0,2.374950171E0
4.236256892E0,-1.519500017E-1,9.289950371E0,2.346000195E0
4.238763967E0,-3.390000165E-1,9.345000267E0,2.422950029E0
4.241271870E0,-4.680000246E-1,9.268050194E0,2.643000126E0
4.243778949E0,-4.639500082E-1,9.354000092E0,2.988000154E0
4.246285103E0,-3.199500144E-1,9.574050903E0,3.198000193E0
4.248792178E0,-1.639500111E-1,9.723000526E0,3.165000200E0
4.251299947E0,3.105000220E-2,9.790050507E0,3.055050135E0
4.253807257E0,2.269500047E-1,9.687000275E0,2.899050236E0
4.256313416E0,3.490500152E-1,9.499950409E0,2.788950205E0
4.258820490E0,4.279500246E-1,9.292050362E0,2.746050119E0
4.261328260E0,4.500000179E-1,9.145950317E0,2.776950121E0
4.263835339E0,3.540000021E-1,9.120000839E0,2.722050190E0
4.266341742E0,1.290000081E-1,9.163050652E0,2.527950048E0
4.268848586E0,-9.705000371E-2,9.321000099E0,2.305050135E0
4.271356509E0,-2.910000086E-1,9.402000427E0,2.326950073E0
4.273863578E0,-4.680000246E-1,9.337050438E0,2.515950203E0
4.276369809E0,-5.239500403E-1,9.246000290E0,2.803050041E0
4.278876884E0,-4.300500154E-1,9.412050247E0,3.049950123E0
4.281384807E0,-2.430000156E-1,9.682050705E0,3.196050167E0
4.283891886E0,-3.299999982E-2,9.792000771E0,3.177000046E0
4.286398040E0,1.890000105E-1,9.763950348E0,3.000000238E0
4.288905115E0,3.690000176E-1,9.670050621E0,2.812950134E0
4.291412884E0,4.669500291E-1,9.514950752E0,2.809950113E0
4.293919963E0,4.930500090E-1,9.289950371E0,2.842050076E0
4.296426348E0,4.450500309E-1,9.097949982E0,2.739000082E0
4.298933192E0,2.680500150E-1,9.001950264E0,2.614050150E0
4.301441192E0,6.195000187E-2,9.100049973E0,2.395950079E0
4.303948194E0,-1.570500135E-1,9.249000549E0,2.329050064E0
4.306454425E0,-3.079500198E-1,9.366000175E0,2.386950016E0
4.308961524E0,-4.470000267E-1,9.390000343E0,2.692950010E0
4.311469447E0,-4.369500279E-1,9.415950775E0,2.997000217E0
4.313976526E0,-3.580500185E-1,9.550050735E0,3.136050224E0
4.316482679E0,-2.220000178E-1,9.687000275E0,3.142950058E0
4.318989831E0,-3.495000303E-2,9.780000687E0,3.136050224E0
4.321497754E0,1.789500117E-1,9.723000526E0,2.997000217E0
4.324004848E0,2.989500165E-1,9.582000732E0,2.833950043E0
4.326511002E0,4.120500088E-1,9.418950081E0,2.830050230E0
4.329018077E0,4.309500158E-1,9.229950905E0,2.872950077E0
4.331525846E0,3.640500307E-1,9.124050140E0,2.746050119E0
4.334032925E0,1.669500023E-1,9.097949982E0,2.502000093E0
4.336539079E0,-1.605000161E-2,9.208050728E0,2.314950228E0
4.339046154E0,-2.029500157E-1,9.381000519E0,2.335950136E0
4.341554154E0,-4.060500264E-1,9.366000175E0,2.458050013E0
4.344061156E0,-4.729500115E-1,9.294000626E0,2.695050240E0
4.346567387E0,-4.369500279E-1,9.391950607E0,2.992050171E0
4.349074462E0,-3.079500198E-1,9.595950127E0,3.133950233E0
4.351582370E0,-1.140000075E-1,9.700950623E0,3.073950052E0
4.354089449E0,7.605000585E-2,9.742050171E0,2.977950096E0
4.356595622E0,2.749500275E-1,9.651000023E0,2.872950077E0
4.359102697E0,3.780000210E-1,9.445050240E0,2.808000088E0
4.361610466E0,4.639500082E-1,9.226950645E0,2.827050209E0
4.364117545E0,4.620000124E-1,9.127050400E0,2.812950134E0
4.366623934E0,3.450000286E-1,9.084000587E0,2.692950010E0
4.369130778E0,1.410000026E-1,9.088050842E0,2.466000080E0
4.371638779E0,-8.505000174E-2,9.261000633E0,2.310000181E0
4.374145781E0,-2.700000107E-1,9.382950783E0,2.395950079E0
4.376652011E0,-4.249500334E-1,9.316050529E0,2.611950159E0
4.379159086E0,-4.879500270E-1,9.289950371E0,2.865000248E0
4.381666999E0,-3.850500286E-1,9.493050575E0,3.085950136E0
4.384174078E0,-1.909500062E-1,9.730050087E0,3.177000046E0
4.386680309E0,-2.295000106E-2,9.796950340E0,3.126000166E0
4.389187384E0,1.510500014E-1,9.759000778E0,2.925000191E0
4.391695307E0,3.280500174E-1,9.643950462E0,2.827050209E0
4.394202386E0,4.000500143E-1,9.448050499E0,2.875050068E0
4.396708540E0,4.140000343E-1,9.250950813E0,2.848950148E0
4.399215615E0,3.760500252E-1,9.148050308E0,2.743050098E0
4.401723384E0,2.110500038E-1,9.136050224E0,2.626050234E0
4.404230463E0,-1.605000161E-2,9.177000046E0,2.443950176E0
4.406736848E0,-2.269500047E-1,9.286950111E0,2.386950016E0
4.409243697E0,-3.610500097E-1,9.316050529E0,2.463000059E0
4.411751620E0,-4.780500233E-1,9.328050613E0,2.740950108E0
4.414258699E0,-4.399500191E-1,9.385050774E0,2.989950180E0
4.416764929E0,-3.010500073E-1,9.538950920E0,3.100050211E0
4.419272004E0,-1.240500063E-1,9.697050095E0,3.126000166E0
4.421779927E0,6.705000252E-2,9.763950348E0,3.112050056E0
4.424287006E0,2.779500186E-1,9.723000526E0,2.953950167E0
4.426793170E0,4.189500213E-1,9.610050201E0,2.796000242E0
4.429300245E0,4.860000312E-1,9.462000847E0,2.782050133E0
4.431808014E0,4.690500200E-1,9.187050819E0,2.773950100E0
4.434315083E0,3.540000021E-1,8.997000694E0,2.599950075E0
4.436821468E0,1.650000066E-1,8.956950188E0,2.358000040E0
4.439328543E0,-2.595000155E-2,9.184050560E0,2.263950109E0
4.441836317E0,-2.119500041E-1,9.381000519E0,2.344050169E0
4.444343396E0,-3.870000243E-1,9.366000175E0,2.494050026E0
4.446849550E0,-4.710000157E-1,9.337050438E0,2.751000166E0
4.449356611E0,-4.399500191E-1,9.466950417E0,3.085950136E0
4.451864611E0,-2.890500128E-1,9.625050545E0,3.210000038E0
4.454371613E0,-1.309500039E-1,9.735000610E0,3.148050070E0
4.456877829E0,4.995000362E-2,9.747000694E0,3.058950186E0
4.459384827E0,2.250000089E-1,9.606000900E0,2.947050095E0
4.461892827E0,3.420000076E-1,9.439949989E0,2.892000198E0
4.464399906E0,3.880500197E-1,9.253950119E0,2.877000093E0
4.466906059E0,3.949500322E-1,9.145950317E0,2.824950218E0
4.469413134E0,2.629500031E-1,9.108000755E0,2.692950010E0
4.471920904E0,7.905000448E-2,9.163050652E0,2.443950176E0
4.474427983E0,-1.140000075E-1,9.330000877E0,2.263950109E0
4.476934367E0,-2.959500253E-1,9.451950073E0,2.431950092E0
4.479441442E0,-4.110000134E-1,9.354000092E0,2.655000210E0
4.481949192E0,-4.399500191E-1,9.318000793E0,2.856000185E0
4.484456271E0,-3.150000274E-1,9.559950829E0,3.009000063E0
4.486962425E0,-1.399500072E-1,9.771000862E0,3.105000257E0
4.489469490E0,4.095000029E-2,9.811050415E0,3.052050114E0
4.491977413E0,2.269500047E-1,9.727950096E0,2.877000093E0
4.494484492E0,3.660000265E-1,9.550050735E0,2.773950100E0
4.496990723E0,4.309500158E-1,9.349050522E0,2.839050055E0
4.499497721E0,4.399500191E-1,9.153000832E0,2.797950029E0
4.502005490E0,3.640500307E-1,9.088050842E0,2.731050014E0
4.504512574E0,1.960500032E-1,9.103050232E0,2.584950209E0
4.507018959E0,-3.795000166E-2,9.103050232E0,2.419950008E0
4.509526034E0,-2.340000123E-1,9.213000298E0,2.365050077E0
4.512033803E0,-3.889500201E-1,9.306000710E0,2.535000086E0
4.514540892E0,-4.420500100E-1,9.337050438E0,2.833950043E0
4.517047046E0,-4.300500154E-1,9.414000511E0,3.076050043E0
4.519554351E0,-2.670000196E-1,9.594000816E0,3.150000095E0
4.522062100E0,-1.240500063E-1,9.760950089E0,3.126000166E0
4.524569179E0,7.905000448E-2,9.820950508E0,3.069000244E0
4.527075329E0,2.610000074E-1,9.724950790E0,2.865000248E0
4.529582404E0,3.640500307E-1,9.519000053E0,2.779050112E0
4.532090327E0,4.549500346E-1,9.321000099E0,2.797950029E0
4.534597406E0,4.620000124E-1,9.208050728E0,2.791050196E0
4.537103637E0,3.400500119E-1,9.160050392E0,2.611950159E0
4.539610635E0,1.410000026E-1,9.187050819E0,2.370000124E0
4.542118635E0,-7.800000161E-2,9.286950111E0,2.302950144E0
4.544625483E0,-2.910000086E-1,9.340050697E0,2.406000137E0
4.547131868E0,-4.470000267E-1,9.274950027E0,2.572950125E0
4.549638943E0,-4.969500303E-1,9.325050354E0,2.848950148E0
4.552146712E0,-4.009500146E-1,9.531000137E0,3.133950233E0
4.554653776E0,-2.509500086E-1,9.640950203E0,3.214950085E0
4.557159930E0,-4.695000127E-2,9.718050003E0,3.141000032E0
4.559667005E0,1.669500023E-1,9.747000694E0,3.009000063E0
4.562174943E0,3.400500119E-1,9.661050797E0,2.877000093E0
4.564682022E0,4.240500331E-1,9.436050415E0,2.818050146E0
4.567188252E0,4.600500166E-1,9.214950562E0,2.770050049E0
4.569695250E0,4.260000288E-1,9.069000244E0,2.704950094E0
4.572203245E0,2.730000019E-1,9.025950432E0,2.551950216E0
4.574710324E0,6.195000187E-2,9.127050400E0,2.332050085E0
4.577216478E0,-1.549500078E-1,9.345000267E0,2.298000097E0
4.579723562E0,-3.220500052E-1,9.409049988E0,2.451000214E0
4.582231331E0,-4.639500082E-1,9.342000008E0,2.679000139E0
4.584738410E0,-4.519500136E-1,9.328050613E0,2.916000128E0
4.587244569E0,-3.510000110E-1,9.553050041E0,3.105000257E0
4.589751875E0,-1.879500151E-1,9.760950089E0,3.198000193E0
4.592259644E0,2.595000155E-2,9.832950592E0,3.130950212E0
4.594766723E0,2.029500157E-1,9.687000275E0,2.956050158E0
4.597272877E0,3.040500283E-1,9.526950836E0,2.827050209E0
4.599779952E0,3.780000210E-1,9.313050270E0,2.856000185E0
4.602287880E0,4.000500143E-1,9.163050652E0,2.820000172E0
4.604794959E0,3.250500262E-1,9.117000580E0,2.710050106E0
4.607301209E0,1.429500133E-1,9.103050232E0,2.584950209E0
4.609808284E0,-7.605000585E-2,9.217950821E0,2.407950163E0
4.612316207E0,-2.430000156E-1,9.342000008E0,2.371950150E0
4.614823055E0,-3.870000243E-1,9.376049995E0,2.536950111E0
4.617329439E0,-4.660500288E-1,9.364050865E0,2.785950184E0
4.619836514E0,-4.009500146E-1,9.463950157E0,3.013950109E0
4.622344284E0,-2.479500175E-1,9.643950462E0,3.118950129E0
4.624851362E0,-7.095000148E-2,9.795000076E0,3.124050140E0
4.627357516E0,1.309500039E-1,9.775950432E0,3.040050030E0
4.629864591E0,3.040500283E-1,9.603000641E0,2.821950197E0
4.632372514E0,4.000500143E-1,9.414000511E0,2.752950191E0
4.634879593E0,4.860000312E-1,9.318000793E0,2.808000088E0
4.637385824E0,4.860000312E-1,9.249000549E0,2.824950218E0
4.639892899E0,3.370500207E-1,9.084000587E0,2.667000055E0
4.642400836E0,1.270500124E-1,9.064050674E0,2.422950029E0
4.644907915E0,-9.000000358E-2,9.238950729E0,2.353049994E0
4.647414069E0,-2.770500183E-1,9.361050606E0,2.430000067E0
4.649921217E0,-4.350000322E-1,9.330000877E0,2.587950230E0
4.652429140E0,-4.609500170E-1,9.325050354E0,2.844000101E0
4.654936209E0,-3.750000298E-1,9.483000755E0,3.172050238E0
4.657442363E0,-2.149500102E-1,9.664950371E0,3.222000122E0
4.659949437E0,-2.100000158E-2,9.787950516E0,3.097950220E0
4.662457207E0,1.789500117E-1,9.811050415E0,2.904000044E0
4.664964286E0,3.210000098E-1,9.601050377E0,2.782050133E0
4.667470899E0,3.660000265E-1,9.322950363E0,2.740950108E0
4.669977654E0,4.069500268E-1,9.130949974E0,2.773950100E0
4.672485438E0,3.540000021E-1,9.136050224E0,2.764950037E0
4.674992525E0,1.960500032E-1,9.153000832E0,2.596950054E0
4.677498756E0,-5.400000140E-2,9.214950562E0,2.347950220E0
4.680005831E0,-2.700000107E-1,9.309000015E0,2.298000097E0
4.682513754E0,-4.090500176E-1,9.352050781E0,2.518050194E0
4.685020819E0,-5.089499950E-1,9.334950447E0,2.770050049E0
4.687526973E0,-4.450500309E-1,9.382950783E0,3.019050121E0
4.690034048E0,-2.910000086E-1,9.562050819E0,3.172050238E0
4.692541822E0,-9.000000358E-2,9.712950706E0,3.210000038E0
4.695048901E0,1.290000081E-1,9.766050339E0,3.069000244E0
4.697555286E0,3.330000043E-1,9.718050003E0,2.842050076E0
4.700062144E0,4.600500166E-1,9.586050034E0,2.812950134E0
4.702570144E0,5.119500160E-1,9.354000092E0,2.856000185E0
4.705077146E0,4.930500090E-1,9.120000839E0,2.784000158E0
4.707583377E0,3.660000265E-1,9.032999992E0,2.611950159E0
4.710090452E0,1.510500014E-1,9.084000587E0,2.419950008E0
4.712598375E0,-6.900000572E-2,9.220050812E0,2.275950193E0
4.715105440E0,-2.550000250E-1,9.364050865E0,2.329050064E0
4.717611670E0,-4.159500301E-1,9.414000511E0,2.571000099E0
4.720118668E0,-4.519500136E-1,9.381000519E0,2.923050165E0
4.722626698E0,-3.940500319E-1,9.457050323E0,3.141000032E0
4.725133777E0,-2.580000162E-1,9.658050537E0,3.186000109E0
4.727639931E0,-5.400000140E-2,9.831000328E0,3.150000095E0
4.730147006E0,1.150500029E-1,9.823050499E0,3.045000076E0
4.732654775E0,2.509500086E-1,9.630000114E0,2.892000198E0
4.735161854E0,3.490500152E-1,9.427950859E0,2.848950148E0
4.737668239E0,4.069500268E-1,9.282000542E0,2.911050081E0
4.740175083E0,3.919500113E-1,9.172050476E0,2.833950043E0
4.742683083E0,2.340000123E-1,9.061950684E0,2.569050074E0
4.745190085E0,2.400000021E-2,9.129000664E0,2.323950052E0
4.747696316E0,-1.360500008E-1,9.357000351E0,2.293050051E0
4.750203391E0,-3.180000186E-1,9.427950859E0,2.427000046E0
4.752711309E0,-4.249500334E-1,9.334950447E0,2.623950243E0
4.755218388E0,-4.369500279E-1,9.369000435E0,2.920950174E0
4.757724542E0,-3.300000131E-1,9.543000221E0,3.126000166E0
4.760231617E0,-1.620000005E-1,9.699000359E0,3.088050127E0
4.762739386E0,2.100000158E-2,9.751950264E0,2.980050087E0
4.765246465E0,2.509500086E-1,9.675000191E0,2.865000248E0
4.767752849E0,3.469500244E-1,9.478950500E0,2.788950205E0
4.770259909E0,4.210500121E-1,9.262950897E0,2.808000088E0
4.772767679E0,4.600500166E-1,9.151050568E0,2.836950064E0
4.775274752E0,3.660000265E-1,9.091050148E0,2.707050085E0
4.777780906E0,1.650000066E-1,9.037950516E0,2.514000177E0
4.780287981E0,-6.405000389E-2,9.190950394E0,2.302950144E0
4.782795986E0,-2.460000068E-1,9.358950615E0,2.365050077E0
4.785302988E0,-4.060500264E-1,9.373050690E0,2.611950159E0
4.787809219E0,-4.900500178E-1,9.265950203E0,2.848950148E0
4.790316207E0,-4.330500066E-1,9.412050247E0,3.067050219E0
4.792824207E0,-2.239500135E-1,9.688950539E0,3.160050154E0
4.795331286E0,-5.895000324E-2,9.820950508E0,3.145950079E0
4.797837440E0,1.360500008E-1,9.795000076E0,2.988000154E0
4.800344515E0,3.160500228E-1,9.691950798E0,2.839050055E0
4.802852284E0,4.159500301E-1,9.505050659E0,2.868000031E0
4.805359363E0,4.189500213E-1,9.310950279E0,2.839050055E0
4.807865748E0,4.000500143E-1,9.166950226E0,2.736000061E0
4.810372822E0,2.970000207E-1,9.093000412E0,2.619000196E0
4.812880592E0,5.205000192E-2,9.163050652E0,2.443950176E0
4.815387671E0,-1.519500017E-1,9.294000626E0,2.350950003E0
4.817893824E0,-3.460500240E-1,9.349050522E0,2.410950184E0
4.820400899E0,-4.590000212E-1,9.330000877E0,2.662050009E0
4.822908823E0,-4.680000246E-1,9.352050781E0,2.959050179E0
4.825415906E0,-3.490500152E-1,9.493050575E0,3.136050224E0
4.827922137E0,-1.909500062E-1,9.703950882E0,3.141000032E0
4.830429135E0,4.950000439E-3,9.787950516E0,3.114000082E0
4.832937135E0,2.149500102E-1,9.739950180E0,2.988000154E0
4.835443983E0,3.730500042E-1,9.579000473E0,2.821950197E0
4.837950368E0,4.500000179E-1,9.388050079E0,2.782050133E0
4.840457443E0,4.759500325E-1,9.241950035E0,2.803050041E0
4.842965207E0,4.020000100E-1,9.055050850E0,2.688000202E0
4.845472286E0,2.419500053E-1,8.977950096E0,2.415000200E0
4.847978440E0,1.695000008E-2,9.117000580E0,2.263950109E0
4.850485751E0,-1.600500047E-1,9.340050697E0,2.322000027E0
4.852993520E0,-3.510000110E-1,9.373050690E0,2.449050188E0
4.855500599E0,-4.609500170E-1,9.306000710E0,2.668950081E0
4.858006739E0,-4.399500191E-1,9.369000435E0,2.997000217E0
4.860513814E0,-3.270000219E-1,9.571950912E0,3.213000059E0
4.863021737E0,-1.549500078E-1,9.756000519E0,3.166950226E0
4.865528806E0,4.305000231E-2,9.792000771E0,3.093000174E0
4.868035036E0,2.149500102E-1,9.712950706E0,2.964000225E0
4.870542034E0,3.250500262E-1,9.487950325E0,2.905950069E0
4.873050049E0,4.159500301E-1,9.313050270E0,2.853000164E0
4.875556898E0,4.140000343E-1,9.181950569E0,2.851050138E0
4.878063296E0,3.229500055E-1,9.085950851E0,2.736000061E0
4.880570371E0,1.120500043E-1,9.097949982E0,2.490000010E0
4.883078140E0,-8.100000024E-2,9.237000465E0,2.287950039E0
4.885585219E0,-2.550000250E-1,9.463950157E0,2.367000103E0
4.888091373E0,-4.300500154E-1,9.414000511E0,2.620950222E0
4.890598448E0,-4.879500270E-1,9.280050278E0,2.809950113E0
4.893106371E0,-3.990000188E-1,9.430950165E0,3.001950026E0
4.895613450E0,-1.960500032E-1,9.676950455E0,3.121950150E0
4.898119681E0,-3.795000166E-2,9.831000328E0,3.100050211E0
4.900626756E0,1.549500078E-1,9.754050255E0,2.956050158E0
4.903134679E0,3.109500110E-1,9.579000473E0,2.758050203E0
4.905641728E0,4.020000100E-1,9.427950859E0,2.821950197E0
4.908147882E0,4.260000288E-1,9.241950035E0,2.845950127E0
4.910654957E0,3.949500322E-1,9.096000671E0,2.776950121E0
4.913162726E0,2.320500165E-1,9.057000160E0,2.611950159E0
4.915670045E0,4.995000362E-2,9.121950150E0,2.415000200E0
4.918176199E0,-1.669500023E-1,9.246000290E0,2.353049994E0
4.920683274E0,-3.390000165E-1,9.289950371E0,2.439000130E0
4.923191044E0,-4.399500191E-1,9.273000717E0,2.712000132E0
4.925698122E0,-4.279500246E-1,9.361050606E0,3.034950256E0
4.928204290E0,-3.010500073E-1,9.559950829E0,3.162000179E0
4.930711365E0,-1.600500047E-1,9.742050171E0,3.097950220E0
4.933219288E0,2.400000021E-2,9.814050674E0,3.034950256E0
4.935726381E0,1.890000105E-1,9.739950180E0,2.920950174E0
4.938232612E0,3.400500119E-1,9.558000565E0,2.848950148E0
4.940739687E0,4.069500268E-1,9.378000259E0,2.830050230E0
4.943247591E0,4.399500191E-1,9.244050026E0,2.830050230E0
4.945754670E0,3.400500119E-1,9.154950142E0,2.667000055E0
4.948260824E0,1.699500084E-1,9.129000664E0,2.422950029E0
4.950767899E0,-4.005000368E-2,9.229950905E0,2.305050135E0
4.953275668E0,-2.359500080E-1,9.318000793E0,2.367000103E0
4.955782747E0,-3.919500113E-1,9.310950279E0,2.548950195E0
4.958289132E0,-4.759500325E-1,9.342000008E0,2.820000172E0
4.960795976E0,-4.279500246E-1,9.499950409E0,3.085950136E0
4.963303976E0,-2.700000107E-1,9.619950294E0,3.177000046E0
4.965810978E0,-9.300000221E-2,9.694050789E0,3.106950045E0
4.968317223E0,8.805000782E-2,9.700950623E0,3.033000231E0
4.970824298E0,3.090000153E-1,9.700950623E0,2.925000191E0
4.973332221E0,4.279500246E-1,9.490950584E0,2.832000017E0
4.975839304E0,4.639500082E-1,9.246000290E0,2.788950205E0
4.978345458E0,4.570500255E-1,9.036000252E0,2.722050190E0
4.980852533E0,3.180000186E-1,8.992950439E0,2.583000183E0
4.983360543E0,1.150500029E-1,9.100049973E0,2.362950087E0
4.985867622E0,-9.300000221E-2,9.309000015E0,2.257050037E0
4.988373776E0,-2.670000196E-1,9.424050331E0,2.406000137E0
4.990880861E0,-4.330500066E-1,9.321000099E0,2.656950235E0
4.993388630E0,-4.540500343E-1,9.282000542E0,2.869950056E0
4.995895709E0,-3.700500131E-1,9.547950745E0,3.021000147E0
4.998401863E0,-2.190000117E-1,9.768000603E0,3.145950079E0
5.000909169E0,-5.205000192E-2,9.796950340E0,3.154950142E0
5.003416861E0,1.579500139E-1,9.685050011E0,3.025950193E0
5.005924017E0,2.850000262E-1,9.565050125E0,2.868000031E0
5.008430170E0,3.709500134E-1,9.406949997E0,2.887050152E0
5.010937245E0,3.949500322E-1,9.208050728E0,2.844000101E0
5.013445168E0,3.420000076E-1,9.091050148E0,2.707050085E0
5.015952262E0,2.029500157E-1,9.091050148E0,2.587950230E0
5.018458415E0,-1.395000052E-2,9.201000214E0,2.434050083E0
5.020965490E0,-1.909500062E-1,9.340050697E0,2.407950163E0
5.023473260E0,-3.460500240E-1,9.390000343E0,2.536950111E0
5.025980334E0,-4.399500191E-1,9.342000008E0,2.734050035E0
5.028486718E0,-3.940500319E-1,9.460050583E0,2.985000134E0
5.030993793E0,-2.700000107E-1,9.631950378E0,3.082950115E0
5.033501562E0,-9.705000371E-2,9.768000603E0,3.102000237E0
5.036008627E0,6.195000187E-2,9.763950348E0,3.064050198E0
5.038514781E0,2.440500110E-1,9.646050453E0,2.875050068E0
5.041021856E0,3.810000122E-1,9.490950584E0,2.767050028E0
5.043529774E0,4.570500255E-1,9.337050438E0,2.784000158E0
5.046036853E0,4.669500291E-1,9.199050903E0,2.772000074E0
5.048543099E0,3.690000176E-1,9.084000587E0,2.683050156E0
5.051050097E0,1.699500084E-1,9.093000412E0,2.461050034E0
5.053558097E0,-2.295000106E-2,9.253950119E0,2.338950157E0
5.056065176E0,-2.430000156E-1,9.322950363E0,2.398950100E0
5.058571407E0,-4.210500121E-1,9.270000458E0,2.559000015E0
5.061078405E0,-5.089499950E-1,9.286950111E0,2.821950197E0
5.063586405E0,-4.210500121E-1,9.471000671E0,3.124050140E0
5.066093253E0,-2.770500183E-1,9.646050453E0,3.210000038E0
5.068599637E0,-1.050000042E-1,9.756000519E0,3.133950233E0
5.071106712E0,1.150500029E-1,9.787950516E0,3.009000063E0
5.073614481E0,2.920500040E-1,9.667950630E0,2.839050055E0
5.076121560E0,3.919500113E-1,9.394950867E0,2.785950184E0
5.078627714E0,4.309500158E-1,9.139050484E0,2.767050028E0
5.081134789E0,4.159500301E-1,9.109950066E0,2.746050119E0
5.083642707E0,2.659500241E-1,9.160050392E0,2.647950172E0
5.086149786E0,4.500000179E-2,9.225000381E0,2.395950079E0
5.088656017E0,-1.690500081E-1,9.330000877E0,2.290950060E0
5.091163097E0,-3.490500152E-1,9.358950615E0,2.443950176E0
5.093671020E0,-4.570500255E-1,9.298950195E0,2.707050085E0
5.096178099E0,-4.680000246E-1,9.376049995E0,2.937000036E0
5.098684244E0,-3.340500295E-1,9.571950912E0,3.109950066E0
5.101191319E0,-1.570500135E-1,9.697050095E0,3.181950092E0
5.103699088E0,4.995000362E-2,9.742050171E0,3.117000103E0
5.106206166E0,2.730000019E-1,9.699000359E0,2.901000023E0
5.108712320E0,4.279500246E-1,9.618000031E0,2.785950184E0
5.111219395E0,4.759500325E-1,9.382950783E0,2.820000172E0
5.113727333E0,4.620000124E-1,9.151050568E0,2.764950037E0
5.116234412E0,3.829500079E-1,9.009000778E0,2.652000189E0
5.118740637E0,1.890000105E-1,9.052050591E0,2.502000093E0
5.121247712E0,-4.200000316E-2,9.178950310E0,2.365050077E0
5.123755635E0,-2.550000250E-1,9.304050446E0,2.353049994E0
5.126262714E0,-3.919500113E-1,9.337050438E0,2.530050039E0
5.128768945E0,-4.639500082E-1,9.361050606E0,2.800950050E0
5.131275943E0,-4.350000322E-1,9.466950417E0,3.081000090E0
5.133783943E0,-3.010500073E-1,9.595950127E0,3.166950226E0
5.136290791E0,-1.210500076E-1,9.739950180E0,3.177000046E0
5.138797176E0,9.105000645E-2,9.796950340E0,3.124050140E0
5.141304251E0,2.370000184E-1,9.655950546E0,2.959050179E0
5.143812020E0,3.570000231E-1,9.457050323E0,2.827050209E0
5.146319104E0,3.949500322E-1,9.304050446E0,2.833950043E0
5.148825489E0,4.210500121E-1,9.142950058E0,2.824950218E0
5.151332333E0,2.970000207E-1,9.069000244E0,2.659950018E0
5.153840342E0,1.120500043E-1,9.141000748E0,2.430000067E0
5.156347344E0,-8.805000782E-2,9.330000877E0,2.347950220E0
5.158853575E0,-2.980500162E-1,9.402000427E0,2.418000221E0
5.161360641E0,-4.519500136E-1,9.286950111E0,2.554050207E0
5.163868564E0,-4.800000191E-1,9.321000099E0,2.812950134E0
5.166375643E0,-3.559500277E-1,9.550050735E0,3.073950052E0
5.168881796E0,-2.119500041E-1,9.673050880E0,3.130950212E0
5.171388871E0,-2.100000158E-2,9.744000435E0,3.064050198E0
5.173896641E0,1.770000011E-1,9.747000694E0,2.916000128E0
5.176403719E0,3.300000131E-1,9.553050041E0,2.833950043E0
5.178910099E0,4.210500121E-1,9.316050529E0,2.803050041E0
5.181417174E0,4.570500255E-1,9.166950226E0,2.796000242E0
5.183924943E0,4.189500213E-1,9.117000580E0,2.767050028E0
5.186432027E0,2.389500141E-1,9.085950851E0,2.620950222E0
5.188938412E0,-1.950000064E-3,9.153000832E0,2.391000032E0
5.191445487E0,-2.100000083E-1,9.304050446E0,2.365050077E0
5.193953270E0,-3.679500222E-1,9.376049995E0,2.530050039E0
5.196460272E0,-4.729500115E-1,9.306000710E0,2.791050196E0
5.198966503E0,-4.369500279E-1,9.382950783E0,2.997000217E0
5.201473578E0,-2.719500065E-1,9.603000641E0,3.145950079E0
5.203981501E0,-1.069500074E-1,9.772950172E0,3.174000263E0
5.206488580E0,8.805000782E-2,9.807000160E0,3.069000244E0
5.208994734E0,2.869500220E-1,9.715950012E0,2.868000031E0
5.211501809E0,3.970500231E-1,9.589050293E0,2.785950184E0
5.214009578E0,4.159500301E-1,9.318000793E0,2.779050112E0
5.216516657E0,4.039500058E-1,9.117000580E0,2.727000237E0
5.219023041E0,2.899500132E-1,9.108000755E0,2.631000042E0
5.221530116E0,1.000500023E-1,9.166950226E0,2.503950119E0
