"Time (s)","Gyroscope x (rad/s)","Gyroscope y (rad/s)","Gyroscope z (rad/s)"
1.437897400E-2,3.739999980E-2,-3.574999981E-3,1.113750041E-2
1.688600800E-2,6.421250105E-2,-2.062499896E-2,-5.912499968E-3
1.939377700E-2,8.373750001E-2,-3.781250119E-2,-1.691249944E-2
2.190086800E-2,8.992499858E-2,-4.138749838E-2,-2.186249942E-2
2.440725300E-2,9.597499669E-2,-3.162499890E-2,-1.938750036E-2
2.691433000E-2,9.239999950E-2,-1.581249945E-2,-1.333750039E-2
2.942211800E-2,8.016250283E-2,-7.149999961E-3,-5.912499968E-3
3.192919500E-2,5.568749830E-2,-1.581249945E-2,1.374999993E-3
3.443559000E-2,2.639999986E-2,-2.186249942E-2,6.187499966E-3
3.694243400E-2,-6.599999964E-3,-1.209999993E-2,1.113750041E-2
3.945035800E-2,-4.083750024E-2,6.187499966E-3,1.237499993E-2
4.195743600E-2,-7.136250287E-2,2.694999985E-2,1.113750041E-2
4.446366700E-2,-9.459999949E-2,4.413750023E-2,6.187499966E-3
4.697074200E-2,-1.006499976E-1,5.018749833E-2,-9.624999948E-3
4.947866500E-2,-9.707500041E-2,3.671250120E-2,-1.938750036E-2
5.198574400E-2,-8.236250281E-2,1.966249943E-2,-2.557500079E-2
5.449189800E-2,-5.788749829E-2,8.662499487E-3,-2.309999987E-2
5.699897300E-2,-2.488750033E-2,1.374999993E-3,-1.333750039E-2
5.950674200E-2,1.416249946E-2,-3.574999981E-3,-1.099999994E-3
6.201382100E-2,5.321250111E-2,-1.086249948E-2,1.361249946E-2
6.451997500E-2,8.373750001E-2,-2.186249942E-2,1.966249943E-2
6.702705000E-2,1.033999994E-1,-4.262499884E-2,2.461249940E-2
6.953497300E-2,1.119249985E-1,-5.362499878E-2,2.584999986E-2
7.204205200E-2,9.844999760E-2,-4.991250113E-2,2.213750035E-2
7.454828300E-2,7.273750007E-2,-2.681249939E-2,1.718750037E-2
7.705527600E-2,3.739999980E-2,1.374999993E-3,5.087499972E-3
7.956327600E-2,-1.787499990E-3,2.337500080E-2,-8.387500420E-3
8.207012400E-2,-3.712499887E-2,2.584999986E-2,-2.667500079E-2
8.457650900E-2,-6.764999777E-2,2.213750035E-2,-3.409999982E-2
8.708357800E-2,-8.607500046E-2,2.213750035E-2,-3.533750027E-2
8.959134800E-2,-9.583749622E-2,2.694999985E-2,-2.667500079E-2
9.209844100E-2,-9.336250275E-2,3.313750029E-2,-1.086249948E-2
9.460459400E-2,-7.259999961E-2,2.942499891E-2,3.849999979E-3
9.711190000E-2,-4.331250116E-2,1.842499897E-2,1.718750037E-2
9.961959200E-2,-1.264999993E-2,-4.812499974E-3,2.337500080E-2
1.021267430E-1,2.021249942E-2,-2.309999987E-2,2.584999986E-2
1.046328970E-1,4.839999974E-2,-3.038750030E-2,2.337500080E-2
1.071398950E-1,6.668750197E-2,-2.681249939E-2,1.842499897E-2
1.096478950E-1,7.039999962E-2,-2.186249942E-2,1.113750041E-2
1.121549740E-1,6.297499686E-2,-7.149999961E-3,-3.574999981E-3
1.146611280E-1,5.321250111E-2,-2.337499987E-3,-1.691249944E-2
1.171682120E-1,3.863750026E-2,-3.574999981E-3,-2.791249938E-2
1.196759810E-1,2.268750034E-2,-8.387500420E-3,-3.038750030E-2
1.221830600E-1,1.924999990E-3,-7.149999961E-3,-2.433750033E-2
1.246894450E-1,-1.759999990E-2,3.849999979E-3,-1.086249948E-2
1.271962890E-1,-3.107500076E-2,1.113750041E-2,3.849999979E-3
1.297042120E-1,-3.588749841E-2,1.718750037E-2,1.484999992E-2
1.322112910E-1,-3.231250122E-2,1.113750041E-2,2.213750035E-2
1.347175320E-1,-2.736249939E-2,-1.099999994E-3,2.461249940E-2
1.372246070E-1,-2.131249942E-2,-1.086249948E-2,2.089999989E-2
1.397325300E-1,-1.512499992E-2,-3.574999981E-3,1.608750038E-2
1.422396330E-1,-1.154999994E-2,4.949999973E-3,5.087499972E-3
1.447457860E-1,-1.154999994E-2,1.484999992E-2,-3.574999981E-3
1.472528610E-1,-6.599999964E-3,1.966249943E-2,-1.567500085E-2
1.497606310E-1,-2.887499984E-3,1.484999992E-2,-2.914999984E-2
1.522677100E-1,6.874999963E-4,2.612499986E-3,-3.409999982E-2
1.547738770E-1,6.874999963E-3,-1.086249948E-2,-2.791249938E-2
1.572809520E-1,1.292499993E-2,-1.333750039E-2,-1.567500085E-2
1.597888750E-1,1.787500083E-2,-7.149999961E-3,1.374999993E-3
1.622959540E-1,2.763750032E-2,-4.812499974E-3,1.842499897E-2
1.648021850E-1,3.492499888E-2,-9.624999948E-3,2.818750031E-2
1.673091830E-1,3.616249934E-2,-1.938750036E-2,2.942499891E-2
1.698171830E-1,3.121249937E-2,-2.914999984E-2,2.818750031E-2
1.723242560E-1,2.639999986E-2,-2.557500079E-2,2.089999989E-2
1.748304100E-1,1.292499993E-2,-9.624999948E-3,9.899999946E-3
1.773374660E-1,-5.362499971E-3,1.361249946E-2,-2.337499987E-3
1.798452350E-1,-2.612499893E-2,2.818750031E-2,-1.567500085E-2
1.823523140E-1,-4.441250116E-2,2.942499891E-2,-2.667500079E-2
1.848586950E-1,-5.307500064E-2,2.584999986E-2,-3.533750027E-2
1.873657700E-1,-5.183750018E-2,1.237499993E-2,-3.162499890E-2
1.898735390E-1,-4.564999789E-2,7.424999960E-3,-2.186249942E-2
1.923805410E-1,-3.464999795E-2,7.424999960E-3,-3.574999981E-3
1.948867720E-1,-1.759999990E-2,6.187499966E-3,1.608750038E-2
1.973938460E-1,5.637499969E-3,-1.099999994E-3,2.818750031E-2
1.999017700E-1,3.244999796E-2,-1.691249944E-2,3.561250120E-2
2.024088480E-1,5.197500065E-2,-3.038750030E-2,3.066249937E-2
2.049149970E-1,6.297499686E-2,-3.891250119E-2,2.461249940E-2
2.074220720E-1,6.792499870E-2,-3.162499890E-2,1.237499993E-2
2.099298420E-1,5.939999968E-2,-1.691249944E-2,3.849999979E-3
2.124369340E-1,3.739999980E-2,2.612499986E-3,-7.149999961E-3
2.149433190E-1,8.112499490E-3,1.484999992E-2,-2.062499896E-2
2.174501630E-1,-2.007500082E-2,2.089999989E-2,-3.162499890E-2
2.199580860E-1,-3.712499887E-2,1.718750037E-2,-3.533750027E-2
2.224651650E-1,-5.307500064E-2,1.484999992E-2,-2.791249938E-2
2.249713960E-1,-6.283749640E-2,1.718750037E-2,-1.567500085E-2
2.274784710E-1,-6.159999967E-2,1.966249943E-2,1.374999993E-3
2.299863940E-1,-4.688749835E-2,1.718750037E-2,1.608750038E-2
2.324934730E-1,-2.859999985E-2,7.424999960E-3,2.584999986E-2
2.349996270E-1,-4.124999978E-3,-5.912499968E-3,2.942499891E-2
2.375067020E-1,1.911249943E-2,-2.433750033E-2,2.708750032E-2
2.400144710E-1,3.987500072E-2,-2.681249939E-2,2.089999989E-2
2.425215500E-1,4.963750020E-2,-1.691249944E-2,1.113750041E-2
2.450277040E-1,5.087500066E-2,-5.912499968E-3,-2.337499987E-3
2.475350090E-1,4.468749836E-2,1.374999993E-4,-1.333750039E-2
2.500427840E-1,2.887500077E-2,6.187499966E-3,-2.433750033E-2
2.525498630E-1,1.539999992E-2,1.374999993E-3,-3.038750030E-2
2.550560160E-1,6.874999963E-4,-2.337499987E-3,-3.038750030E-2
2.575630910E-1,-1.264999993E-2,-2.337499987E-3,-1.938750036E-2
2.600710280E-1,-2.736249939E-2,2.612499986E-3,-4.674999975E-3
2.625781070E-1,-3.107500076E-2,1.113750041E-2,1.237499993E-2
2.650842560E-1,-2.983750030E-2,1.113750041E-2,2.584999986E-2
2.675913310E-1,-1.883750036E-2,4.949999973E-3,3.066249937E-2
2.700991000E-1,-9.074999951E-3,-8.387500420E-3,2.818750031E-2
2.726061790E-1,6.874999963E-4,-1.691249944E-2,2.089999989E-2
2.751125690E-1,1.044999994E-2,-1.581249945E-2,1.237499993E-2
2.776196440E-1,1.292499993E-2,1.374999993E-4,1.374999993E-3
2.801274130E-1,8.112499490E-3,1.113750041E-2,-9.624999948E-3
2.826344340E-1,1.924999990E-3,1.718750037E-2,-1.814999990E-2
2.851406650E-1,-2.887499984E-3,1.718750037E-2,-2.667500079E-2
2.876477400E-1,-6.599999964E-3,4.949999973E-3,-2.914999984E-2
2.901556630E-1,-6.599999964E-3,-4.812499974E-3,-2.433750033E-2
2.926627470E-1,-6.599999964E-3,-7.149999961E-3,-1.086249948E-2
2.951689010E-1,-5.362499971E-3,1.374999993E-4,6.187499966E-3
2.976759760E-1,6.874999963E-4,2.612499986E-3,2.213750035E-2
3.001837450E-1,1.168750040E-2,-1.099999994E-3,2.942499891E-2
3.026908240E-1,2.144999988E-2,-1.333750039E-2,2.942499891E-2
3.051971930E-1,2.763750032E-2,-2.791249938E-2,2.584999986E-2
3.077040380E-1,2.763750032E-2,-2.309999987E-2,1.484999992E-2
3.102119610E-1,2.516249940E-2,-9.624999948E-3,5.087499972E-3
3.127191220E-1,1.663750038E-2,4.949999973E-3,-4.674999975E-3
3.152252750E-1,-4.124999978E-3,1.966249943E-2,-1.691249944E-2
3.177323500E-1,-2.254999988E-2,2.584999986E-2,-2.433750033E-2
3.202402400E-1,-3.231250122E-2,1.842499897E-2,-3.038750030E-2
3.227473190E-1,-3.959999979E-2,8.662499487E-3,-2.914999984E-2
3.252534730E-1,-4.083750024E-2,3.849999979E-3,-2.062499896E-2
3.277605480E-1,-3.464999795E-2,7.424999960E-3,-4.674999975E-3
3.302683220E-1,-2.364999987E-2,7.424999960E-3,1.608750038E-2
3.327754010E-1,-6.599999964E-3,2.612499986E-3,2.584999986E-2
3.352817860E-1,1.539999992E-2,-7.149999961E-3,3.189999983E-2
3.377888660E-1,3.244999796E-2,-2.309999987E-2,3.189999983E-2
3.402966350E-1,4.839999974E-2,-3.286249936E-2,2.461249940E-2
3.428037140E-1,5.568749830E-2,-2.914999984E-2,1.608750038E-2
3.453098680E-1,5.087500066E-2,-1.209999993E-2,2.612499986E-3
3.478169430E-1,3.739999980E-2,1.374999993E-3,-7.149999961E-3
3.503248660E-1,1.539999992E-2,1.484999992E-2,-1.938750036E-2
3.528319450E-1,-5.362499971E-3,1.842499897E-2,-2.667500079E-2
3.553380990E-1,-2.612499893E-2,1.484999992E-2,-3.286249936E-2
3.578451740E-1,-3.712499887E-2,7.424999960E-3,-2.914999984E-2
3.603529430E-1,-4.564999789E-2,1.113750041E-2,-1.691249944E-2
3.628600220E-1,-5.059999973E-2,1.594999991E-2,-1.099999994E-3
3.653664060E-1,-4.331250116E-2,1.594999991E-2,1.608750038E-2
3.678734810E-1,-2.612499893E-2,9.899999946E-3,2.461249940E-2
3.703812510E-1,-4.124999978E-3,-7.149999961E-3,2.942499891E-2
3.728882530E-1,1.539999992E-2,-1.938750036E-2,2.708750032E-2
3.753944830E-1,3.011249937E-2,-2.309999987E-2,1.966249943E-2
3.779015580E-1,3.987500072E-2,-1.581249945E-2,9.899999946E-3
3.804094810E-1,3.987500072E-2,-7.149999961E-3,-1.099999994E-3
3.829165600E-1,3.244999796E-2,2.612499986E-3,-9.624999948E-3
3.854227910E-1,1.663750038E-2,9.899999946E-3,-2.062499896E-2
3.879297890E-1,5.637499969E-3,7.424999960E-3,-2.914999984E-2
3.904377890E-1,-5.499999970E-4,1.374999993E-3,-2.791249938E-2
3.929446470E-1,-1.031249948E-2,-1.099999994E-3,-2.186249942E-2
3.954508010E-1,-2.007500082E-2,1.374999993E-3,-3.574999981E-3
3.979581070E-1,-2.488750033E-2,7.424999960E-3,1.237499993E-2
4.004658030E-1,-2.254999988E-2,7.424999960E-3,2.461249940E-2
4.029729590E-1,-1.031249948E-2,1.374999993E-4,3.066249937E-2
4.054791130E-1,-5.499999970E-4,-8.387500420E-3,2.708750032E-2
4.079861880E-1,1.292499993E-2,-1.691249944E-2,2.089999989E-2
4.104941310E-1,1.897500083E-2,-1.567500085E-2,8.662499487E-3
4.130012100E-1,2.268750034E-2,-8.387500420E-3,-1.099999994E-3
4.155074400E-1,1.526249945E-2,1.374999993E-4,-9.624999948E-3
4.180144380E-1,1.924999990E-3,1.484999992E-2,-1.814999990E-2
4.205222080E-1,-7.837500423E-3,2.089999989E-2,-2.543750033E-2
4.230292720E-1,-1.402499992E-2,1.484999992E-2,-3.038750030E-2
4.255356560E-1,-2.007500082E-2,1.374999993E-4,-2.543750033E-2
4.280427310E-1,-2.131249942E-2,-1.099999994E-3,-1.567500085E-2
4.305505050E-1,-2.007500082E-2,-2.337499987E-3,2.612499986E-3
4.330575840E-1,-1.278750040E-2,2.612499986E-3,1.608750038E-2
4.355637380E-1,6.874999963E-4,1.374999993E-3,2.584999986E-2
4.380708130E-1,1.526249945E-2,-7.149999961E-3,2.942499891E-2
4.405787360E-1,2.749999985E-2,-2.186249942E-2,2.337500080E-2
4.430858150E-1,3.478749841E-2,-3.038750030E-2,1.966249943E-2
4.455919690E-1,3.602499887E-2,-2.186249942E-2,9.899999946E-3
4.480990440E-1,2.626249939E-2,-4.674999975E-3,1.374999993E-4
4.506070440E-1,1.292499993E-2,8.662499487E-3,-1.086249948E-2
4.531138920E-1,-3.024999984E-3,1.732499897E-2,-2.062499896E-2
4.556202770E-1,-1.773750037E-2,2.089999989E-2,-2.667500079E-2
4.581271210E-1,-2.749999985E-2,1.361249946E-2,-3.038750030E-2
4.606351210E-1,-3.478749841E-2,5.087499972E-3,-2.543750033E-2
4.631421230E-1,-3.602499887E-2,1.374999993E-3,-1.209999993E-2
4.656483540E-1,-3.355000168E-2,7.424999960E-3,6.324999966E-3
4.681554290E-1,-2.254999988E-2,7.424999960E-3,2.213750035E-2
4.706633520E-1,-1.787499990E-3,-1.099999994E-3,2.942499891E-2
4.731704500E-1,1.649999991E-2,-1.209999993E-2,3.066249937E-2
4.756766800E-1,3.244999796E-2,-2.433750033E-2,2.337500080E-2
4.781837550E-1,4.344999790E-2,-2.914999984E-2,1.732499897E-2
4.806916780E-1,4.344999790E-2,-1.814999990E-2,3.849999979E-3
4.831985320E-1,3.368749842E-2,-1.099999994E-3,-4.674999975E-3
4.857049160E-1,1.897500083E-2,1.113750041E-2,-1.443750039E-2
4.882119910E-1,6.874999963E-4,1.484999992E-2,-2.543750033E-2
4.907197600E-1,-1.402499992E-2,1.113750041E-2,-3.162499890E-2
4.932268440E-1,-2.749999985E-2,7.424999960E-3,-3.038750030E-2
4.957329980E-1,-3.478749841E-2,6.324999966E-3,-2.062499896E-2
4.982400730E-1,-4.083750024E-2,1.113750041E-2,-2.337499987E-3
5.007479960E-1,-3.849999979E-2,1.361249946E-2,1.361249946E-2
5.032550750E-1,-2.749999985E-2,5.087499972E-3,2.461249940E-2
5.057613060E-1,-7.837500423E-3,-2.337499987E-3,2.942499891E-2
5.082683040E-1,1.168750040E-2,-1.567500085E-2,2.708750032E-2
5.107763040E-1,2.873750031E-2,-2.186249942E-2,1.856249943E-2
5.132831600E-1,3.849999979E-2,-1.814999990E-2,9.899999946E-3
5.157895450E-1,3.973750025E-2,-7.149999961E-3,1.374999993E-4
5.182966200E-1,2.997500077E-2,1.374999993E-4,-9.624999948E-3
5.208043890E-1,1.526249945E-2,5.087499972E-3,-1.691249944E-2
5.233114830E-1,6.874999963E-4,1.113750041E-2,-2.543750033E-2
5.258176370E-1,-1.031249948E-2,8.662499487E-3,-2.667500079E-2
5.283247110E-1,-1.883750036E-2,6.324999966E-3,-2.309999987E-2
5.308326350E-1,-2.378750034E-2,5.087499972E-3,-1.086249948E-2
5.333397140E-1,-2.749999985E-2,7.424999960E-3,2.612499986E-3
5.358459440E-1,-2.254999988E-2,3.849999979E-3,1.608750038E-2
5.383530190E-1,-1.154999994E-2,-1.099999994E-3,2.461249940E-2
5.408609420E-1,3.024999984E-3,-7.149999961E-3,2.584999986E-2
5.433680210E-1,1.526249945E-2,-1.567500085E-2,2.461249940E-2
5.458741750E-1,2.626249939E-2,-2.062499896E-2,1.856249943E-2
5.483812500E-1,2.749999985E-2,-9.624999948E-3,9.899999946E-3
5.508890190E-1,2.144999988E-2,1.374999993E-3,1.374999993E-3
5.533960740E-1,1.044999994E-2,6.324999966E-3,-1.209999993E-2
5.559022280E-1,-1.787499990E-3,1.113750041E-2,-2.186249942E-2
5.584093030E-1,-1.402499992E-2,1.484999992E-2,-2.914999984E-2
5.609172260E-1,-1.883750036E-2,1.361249946E-2,-3.038750030E-2
5.634242720E-1,-2.254999988E-2,6.324999966E-3,-2.186249942E-2
5.659305030E-1,-2.626249939E-2,3.849999979E-3,-9.624999948E-3
5.684375780E-1,-2.131249942E-2,1.374999993E-3,9.899999946E-3
5.709455010E-1,-1.154999994E-2,1.374999993E-3,2.089999989E-2
5.734525610E-1,5.499999970E-3,-7.149999961E-3,2.942499891E-2
5.759587150E-1,2.021249942E-2,-1.209999993E-2,2.832499892E-2
5.784657890E-1,2.997500077E-2,-2.186249942E-2,2.337500080E-2
5.809735590E-1,3.368749842E-2,-2.062499896E-2,1.484999992E-2
5.834806380E-1,2.873750031E-2,-9.624999948E-3,3.849999979E-3
5.859867760E-1,2.021249942E-2,1.374999993E-3,-7.149999961E-3
5.884938510E-1,4.262499977E-3,1.237499993E-2,-1.938750036E-2
5.910017740E-1,-1.031249948E-2,1.484999992E-2,-2.914999984E-2
5.935088480E-1,-1.883750036E-2,1.608750038E-2,-3.038750030E-2
5.960150790E-1,-2.873750031E-2,1.113750041E-2,-2.791249938E-2
5.985221540E-1,-3.355000168E-2,7.424999960E-3,-1.319999993E-2
6.010300630E-1,-3.355000168E-2,5.087499972E-3,3.849999979E-3
6.035369110E-1,-2.626249939E-2,1.374999993E-3,2.089999989E-2
6.060432960E-1,-1.031249948E-2,-2.337499987E-3,3.066249937E-2
6.085503560E-1,9.212499484E-3,-9.624999948E-3,3.189999983E-2
6.110581250E-1,2.502499893E-2,-1.814999990E-2,2.832499892E-2
6.135652040E-1,3.726249933E-2,-2.433750033E-2,2.089999989E-2
6.160715700E-1,4.344999790E-2,-1.814999990E-2,1.113750041E-2
6.185784140E-1,3.726249933E-2,-8.387500420E-3,-3.437499981E-3
6.210864140E-1,2.144999988E-2,5.087499972E-3,-1.319999993E-2
6.235933870E-1,4.262499977E-3,1.361249946E-2,-2.419999987E-2
6.260996180E-1,-1.278750040E-2,1.608750038E-2,-3.038750030E-2
6.286066930E-1,-2.502499893E-2,1.237499993E-2,-2.914999984E-2
6.311146210E-1,-3.231250122E-2,1.237499993E-2,-2.186249942E-2
6.336217000E-1,-3.849999979E-2,1.237499993E-2,-5.912499968E-3
6.361278530E-1,-3.602499887E-2,8.662499487E-3,6.324999966E-3
6.386349380E-1,-2.378750034E-2,2.612499986E-3,1.856249943E-2
6.411427080E-1,-1.031249948E-2,-2.337499987E-3,2.708750032E-2
6.436497870E-1,9.212499484E-3,-9.624999948E-3,2.708750032E-2
6.461559400E-1,2.392499894E-2,-1.814999990E-2,2.584999986E-2
6.486630150E-1,3.602499887E-2,-1.691249944E-2,1.484999992E-2
6.511709380E-1,3.849999979E-2,-1.086249948E-2,6.324999966E-3
6.536780170E-1,3.121249937E-2,-3.574999981E-3,-5.912499968E-3
6.561842480E-1,1.897500083E-2,3.849999979E-3,-1.443750039E-2
6.586913230E-1,3.024999984E-3,1.237499993E-2,-2.419999987E-2
6.611992460E-1,-7.837500423E-3,1.361249946E-2,-2.914999984E-2
6.637063250E-1,-1.773750037E-2,8.662499487E-3,-2.543750033E-2
6.662129540E-1,-2.378750034E-2,3.849999979E-3,-1.567500085E-2
6.687197310E-1,-2.749999985E-2,2.612499986E-3,1.374999993E-3
6.712273230E-1,-2.749999985E-2,1.374999993E-3,1.608750038E-2
6.737344020E-1,-1.649999991E-2,1.374999993E-4,2.584999986E-2
6.762407770E-1,-3.024999984E-3,-2.337499987E-3,3.066249937E-2
6.787476210E-1,1.044999994E-2,-1.209999993E-2,2.584999986E-2
6.812556210E-1,2.021249942E-2,-1.814999990E-2,2.089999989E-2
6.837626130E-1,2.873750031E-2,-1.567500085E-2,1.113750041E-2
6.862688440E-1,2.749999985E-2,-8.387500420E-3,1.374999993E-4
6.887758420E-1,1.897500083E-2,5.087499972E-3,-1.086249948E-2
6.912838420E-1,1.924999990E-3,1.484999992E-2,-2.186249942E-2
6.937906760E-1,-1.031249948E-2,1.732499897E-2,-2.914999984E-2
6.962970600E-1,-1.773750037E-2,9.899999946E-3,-3.038750030E-2
6.988041350E-1,-2.254999988E-2,5.087499972E-3,-2.186249942E-2
7.013119050E-1,-2.378750034E-2,1.374999993E-3,-1.086249948E-2
7.038189830E-1,-2.254999988E-2,2.612499986E-3,7.562499959E-3
7.063253680E-1,-1.649999991E-2,1.374999993E-3,2.213750035E-2
7.088322210E-1,-1.787499990E-3,1.374999993E-4,2.942499891E-2
7.113402210E-1,1.168750040E-2,-1.086249948E-2,3.189999983E-2
7.138472230E-1,2.144999988E-2,-2.062499896E-2,2.461249940E-2
7.163534830E-1,2.997500077E-2,-2.062499896E-2,1.732499897E-2
7.188605580E-1,3.121249937E-2,-1.209999993E-2,5.087499972E-3
7.213684810E-1,2.502499893E-2,-1.099999994E-3,-5.912499968E-3
7.238755750E-1,1.044999994E-2,8.662499487E-3,-1.691249944E-2
7.263817290E-1,-6.737499963E-3,1.608750038E-2,-2.667500079E-2
7.288888040E-1,-1.883750036E-2,1.608750038E-2,-2.667500079E-2
7.313965820E-1,-2.502499893E-2,1.113750041E-2,-2.543750033E-2
7.339036610E-1,-2.983750030E-2,6.324999966E-3,-1.443750039E-2
7.364098150E-1,-3.107500076E-2,5.087499972E-3,-1.099999994E-3
7.389171200E-1,-2.254999988E-2,1.374999993E-3,1.361249946E-2
7.414248130E-1,-1.031249948E-2,-2.337499987E-3,2.708750032E-2
7.439319690E-1,4.262499977E-3,-3.574999981E-3,2.942499891E-2
7.464381220E-1,2.144999988E-2,-1.209999993E-2,2.942499891E-2
7.489451970E-1,3.368749842E-2,-2.433750033E-2,2.089999989E-2
7.514531200E-1,3.973750025E-2,-2.543750033E-2,1.113750041E-2
7.539601990E-1,3.849999979E-2,-1.333750039E-2,1.374999993E-3
7.564663440E-1,2.626249939E-2,1.374999993E-3,-9.624999948E-3
7.589734190E-1,1.044999994E-2,1.484999992E-2,-1.938750036E-2
7.614814190E-1,-6.737499963E-3,1.842499897E-2,-2.914999984E-2
7.639882950E-1,-2.131249942E-2,1.484999992E-2,-2.791249938E-2
7.664946800E-1,-2.873750031E-2,7.424999960E-3,-2.667500079E-2
7.690017550E-1,-3.478749841E-2,5.087499972E-3,-1.443750039E-2
7.715095240E-1,-3.231250122E-2,6.324999966E-3,1.374999993E-4
7.740166130E-1,-2.749999985E-2,7.424999960E-3,1.361249946E-2
7.765227670E-1,-1.402499992E-2,2.612499986E-3,2.584999986E-2
7.790298420E-1,-1.787499990E-3,-5.912499968E-3,2.942499891E-2
7.815377840E-1,1.402499992E-2,-1.691249944E-2,2.942499891E-2
7.840448630E-1,2.749999985E-2,-2.433750033E-2,2.337500080E-2
7.865510170E-1,3.726249933E-2,-1.443750039E-2,1.361249946E-2
7.890580920E-1,3.478749841E-2,2.612499986E-3,1.374999993E-4
7.915658610E-1,2.502499893E-2,1.113750041E-2,-1.567500085E-2
7.940729110E-1,1.292499993E-2,1.237499993E-2,-2.543750033E-2
7.965792950E-1,-3.024999984E-3,8.662499487E-3,-3.286249936E-2
7.990861400E-1,-1.649999991E-2,1.374999993E-3,-3.162499890E-2
8.015941450E-1,-2.131249942E-2,-5.912499968E-3,-2.062499896E-2
8.041011470E-1,-2.378750034E-2,-1.099999994E-3,-3.437499981E-3
8.066073770E-1,-2.378750034E-2,8.662499487E-3,1.856249943E-2
8.091144520E-1,-1.883750036E-2,1.732499897E-2,2.942499891E-2
8.116223750E-1,-6.737499963E-3,8.662499487E-3,3.313750029E-2
8.141294540E-1,3.024999984E-3,-1.209999993E-2,2.832499892E-2
8.166356080E-1,1.168750040E-2,-3.286249936E-2,1.856249943E-2
8.191426830E-1,2.144999988E-2,-3.162499890E-2,8.662499487E-3
8.216504520E-1,2.997500077E-2,-1.333750039E-2,-1.099999994E-3
8.241577620E-1,2.997500077E-2,1.237499993E-2,-7.149999961E-3
8.266639160E-1,1.526249945E-2,2.818750031E-2,-1.691249944E-2
8.291709910E-1,-1.787499990E-3,2.708750032E-2,-2.543750033E-2
8.316786830E-1,-2.007500082E-2,8.662499487E-3,-3.038750030E-2
8.341858390E-1,-3.107500076E-2,-1.333750039E-2,-2.543750033E-2
8.366920030E-1,-3.478749841E-2,-1.333750039E-2,-1.443750039E-2
8.391990780E-1,-3.107500076E-2,5.087499972E-3,2.612499986E-3
8.417070010E-1,-2.007500082E-2,2.708750032E-2,1.966249943E-2
8.442140800E-1,-4.262499977E-3,2.337500080E-2,2.832499892E-2
8.467203110E-1,1.168750040E-2,-2.337499987E-3,2.708750032E-2
8.492273090E-1,2.268750034E-2,-3.643750027E-2,2.213750035E-2
8.517353230E-1,3.121249937E-2,-5.238749832E-2,1.608750038E-2
8.542421710E-1,3.726249933E-2,-2.914999984E-2,8.662499487E-3
8.567485550E-1,3.478749841E-2,9.899999946E-3,-1.099999994E-3
8.592556200E-1,2.626249939E-2,3.066249937E-2,-8.387500420E-3
8.617633900E-1,9.212499484E-3,2.708750032E-2,-2.062499896E-2
8.642704680E-1,-1.031249948E-2,8.662499487E-3,-3.162499890E-2
8.667766220E-1,-2.749999985E-2,-1.209999993E-2,-3.409999982E-2
8.692836970E-1,-3.726249933E-2,-1.333750039E-2,-2.791249938E-2
8.717916200E-1,-3.959999979E-2,5.087499972E-3,-8.387500420E-3
8.742986990E-1,-3.478749841E-2,2.818750031E-2,1.361249946E-2
8.768049300E-1,-2.378750034E-2,2.708750032E-2,2.942499891E-2
8.793119280E-1,-6.737499963E-3,8.662499487E-3,3.313750029E-2
8.818199280E-1,1.044999994E-2,-2.186249942E-2,2.708750032E-2
8.843267760E-1,2.392499894E-2,-4.262499884E-2,2.089999989E-2
8.868331610E-1,3.602499887E-2,-3.643750027E-2,1.237499993E-2
8.893402360E-1,4.221250117E-2,-9.624999948E-3,2.612499986E-3
8.918480050E-1,3.478749841E-2,1.842499897E-2,-3.437499981E-3
8.943550070E-1,1.773750037E-2,2.708750032E-2,-1.319999993E-2
8.968612380E-1,1.924999990E-3,1.608750038E-2,-2.419999987E-2
8.993683130E-1,-1.526249945E-2,-1.099999994E-3,-3.038750030E-2
9.018762360E-1,-2.502499893E-2,-1.086249948E-2,-2.791249938E-2
9.043833150E-1,-2.983750030E-2,1.374999993E-4,-1.814999990E-2
9.068895360E-1,-3.231250122E-2,1.842499897E-2,1.374999993E-4
9.093966110E-1,-2.983750030E-2,2.461249940E-2,1.732499897E-2
9.119045340E-1,-2.131249942E-2,1.361249946E-2,2.584999986E-2
9.144116130E-1,-1.787499990E-3,-9.624999948E-3,2.818750031E-2
9.169177670E-1,1.416249946E-2,-3.162499890E-2,2.089999989E-2
9.194248420E-1,2.763750032E-2,-3.286249936E-2,1.608750038E-2
9.219326110E-1,3.739999980E-2,-1.457499992E-2,7.424999960E-3
9.244396750E-1,3.616249934E-2,5.087499972E-3,1.374999993E-4
9.269458290E-1,2.392499894E-2,1.237499993E-2,-9.624999948E-3
9.294529040E-1,4.399999976E-3,9.899999946E-3,-2.062499896E-2
9.319608180E-1,-1.154999994E-2,5.087499972E-3,-2.667500079E-2
9.344678970E-1,-1.759999990E-2,1.374999993E-4,-2.543750033E-2
9.369741280E-1,-2.131249942E-2,1.374999993E-3,-2.186249942E-2
9.394811260E-1,-2.378750034E-2,1.237499993E-2,-7.149999961E-3
9.419891260E-1,-2.254999988E-2,1.718750037E-2,7.424999960E-3
9.444959740E-1,-1.883750036E-2,8.662499487E-3,1.966249943E-2
9.470023730E-1,-5.362499971E-3,-4.812499974E-3,2.584999986E-2
9.495094480E-1,1.044999994E-2,-1.938750036E-2,2.584999986E-2
9.520172170E-1,2.268750034E-2,-2.557500079E-2,2.337500080E-2
9.545242960E-1,3.244999796E-2,-2.186249942E-2,1.732499897E-2
9.570304690E-1,3.368749842E-2,-5.912499968E-3,8.662499487E-3
9.595375440E-1,2.516249940E-2,6.187499966E-3,-1.099999994E-3
9.620455400E-1,1.044999994E-2,7.424999960E-3,-1.086249948E-2
9.645525420E-1,-4.124999978E-3,1.113750041E-2,-2.433750033E-2
9.670587720E-1,-1.759999990E-2,8.662499487E-3,-2.914999984E-2
9.695658470E-1,-2.502499893E-2,8.662499487E-3,-3.162499890E-2
9.720737700E-1,-2.612499893E-2,6.187499966E-3,-2.309999987E-2
9.745808490E-1,-2.736249939E-2,1.237499993E-2,-7.149999961E-3
9.770870030E-1,-2.612499893E-2,1.237499993E-2,7.424999960E-3
9.795940780E-1,-1.278750040E-2,1.374999993E-4,2.213750035E-2
9.821018470E-1,3.162499983E-3,-8.387500420E-3,2.584999986E-2
9.846089260E-1,1.663750038E-2,-2.186249942E-2,2.818750031E-2
9.871153110E-1,2.997500077E-2,-2.557500079E-2,2.089999989E-2
9.896221440E-1,3.492499888E-2,-1.814999990E-2,1.608750038E-2
9.921301440E-1,3.616249934E-2,-4.812499974E-3,3.849999979E-3
9.946371460E-1,2.392499894E-2,6.187499966E-3,-8.387500420E-3
9.971433670E-1,9.212499484E-3,1.113750041E-2,-1.938750036E-2
9.996504420E-1,-5.362499971E-3,7.424999960E-3,-2.914999984E-2
1.002158365E0,-1.636249945E-2,5.087499972E-3,-3.038750030E-2
1.004665440E0,-2.378750034E-2,6.187499966E-3,-2.667500079E-2
1.007171594E0,-2.983750030E-2,9.899999946E-3,-1.333750039E-2
1.009678669E0,-2.983750030E-2,9.899999946E-3,3.849999979E-3
1.012186433E0,-2.612499893E-2,7.424999960E-3,1.732499897E-2
1.014693512E0,-1.278750040E-2,-1.099999994E-3,3.066249937E-2
1.017199666E0,1.924999990E-3,-1.333750039E-2,2.942499891E-2
1.019706755E0,1.897500083E-2,-2.309999987E-2,2.708750032E-2
1.022214678E0,3.244999796E-2,-2.309999987E-2,1.966249943E-2
1.024721757E0,3.973750025E-2,-1.333750039E-2,8.662499487E-3
1.027227987E0,3.368749842E-2,-2.337499987E-3,-1.099999994E-3
1.029735062E0,2.144999988E-2,8.662499487E-3,-1.333750039E-2
1.032242985E0,3.162499983E-3,1.361249946E-2,-2.309999987E-2
1.034750069E0,-1.278750040E-2,1.484999992E-2,-3.038750030E-2
1.037256300E0,-2.131249942E-2,7.424999960E-3,-3.162499890E-2
1.039763298E0,-3.231250122E-2,8.662499487E-3,-2.309999987E-2
1.042271067E0,-3.355000168E-2,1.113750041E-2,-1.086249948E-2
1.044778146E0,-3.107500076E-2,1.113750041E-2,8.662499487E-3
1.047284531E0,-2.007500082E-2,5.087499972E-3,2.089999989E-2
1.049791606E0,-5.362499971E-3,-4.812499974E-3,2.942499891E-2
1.052299375E0,1.044999994E-2,-1.567500085E-2,2.818750031E-2
1.054806463E0,2.392499894E-2,-2.557500079E-2,2.584999986E-2
1.057312617E0,3.368749842E-2,-2.309999987E-2,1.842499897E-2
1.059819692E0,3.492499888E-2,-1.333750039E-2,8.662499487E-3
1.062327615E0,2.997500077E-2,2.612499986E-3,-1.099999994E-3
1.064834694E0,1.663750038E-2,9.899999946E-3,-1.333750039E-2
1.067340848E0,6.874999963E-4,1.484999992E-2,-2.433750033E-2
1.069847922E0,-1.278750040E-2,1.237499993E-2,-3.162499890E-2
1.072355692E0,-2.131249942E-2,2.612499986E-3,-3.038750030E-2
1.074862771E0,-2.502499893E-2,-1.099999994E-3,-1.938750036E-2
1.077369155E0,-2.612499893E-2,1.374999993E-3,-3.574999981E-3
1.079876254E0,-2.378750034E-2,9.899999946E-3,1.732499897E-2
1.082384023E0,-1.154999994E-2,6.187499966E-3,2.818750031E-2
1.084891025E0,4.399999976E-3,-2.337499987E-3,3.313750029E-2
1.087397256E0,1.416249946E-2,-1.814999990E-2,2.942499891E-2
1.089904331E0,2.144999988E-2,-2.914999984E-2,2.213750035E-2
1.092412254E0,2.639999986E-2,-2.557500079E-2,1.237499993E-2
1.094919333E0,2.639999986E-2,-4.812499974E-3,1.374999993E-3
1.097425487E0,1.773750037E-2,1.484999992E-2,-1.086249948E-2
1.099932639E0,3.162499983E-3,2.213750035E-2,-2.309999987E-2
1.102440562E0,-7.837500423E-3,1.718750037E-2,-3.286249936E-2
1.104947410E0,-1.759999990E-2,5.087499972E-3,-3.533750027E-2
1.107453781E0,-2.736249939E-2,-1.099999994E-3,-2.791249938E-2
1.109960625E0,-2.983750030E-2,1.374999993E-4,-1.209999993E-2
1.112468625E0,-2.736249939E-2,7.424999960E-3,7.424999960E-3
1.114975689E0,-2.007500082E-2,1.237499993E-2,2.708750032E-2
1.117481843E0,-5.362499971E-3,2.612499986E-3,3.561250120E-2
1.119988918E0,1.292499993E-2,-1.209999993E-2,3.437500075E-2
1.122496846E0,2.392499894E-2,-2.791249938E-2,2.708750032E-2
1.125003925E0,2.997500077E-2,-2.791249938E-2,1.484999992E-2
1.127510155E0,3.121249937E-2,-1.567500085E-2,2.612499986E-3
1.130017143E0,2.639999986E-2,2.612499986E-3,-8.387500420E-3
1.132525143E0,1.416249946E-2,1.608750038E-2,-1.814999990E-2
1.135031992E0,-1.787499990E-3,2.089999989E-2,-2.791249938E-2
1.137538392E0,-1.512499992E-2,1.484999992E-2,-3.409999982E-2
1.140045467E0,-2.378750034E-2,5.087499972E-3,-3.038750030E-2
1.142553236E0,-3.231250122E-2,1.374999993E-3,-1.938750036E-2
1.145060324E0,-3.478749841E-2,5.087499972E-3,1.374999993E-4
1.147566478E0,-2.983750030E-2,8.662499487E-3,1.842499897E-2
1.150073553E0,-1.278750040E-2,1.374999993E-3,3.066249937E-2
1.152581476E0,3.162499983E-3,-4.812499974E-3,3.437500075E-2
1.155088565E0,2.021249942E-2,-1.333750039E-2,2.818750031E-2
1.157594796E0,3.244999796E-2,-2.557500079E-2,2.213750035E-2
1.160101794E0,3.849999979E-2,-2.667500079E-2,1.113750041E-2
1.162609563E0,3.739999980E-2,-1.209999993E-2,1.374999993E-4
1.165116642E0,2.516249940E-2,5.087499972E-3,-1.333750039E-2
1.167623027E0,9.212499484E-3,1.842499897E-2,-2.186249942E-2
1.170130102E0,-5.362499971E-3,2.089999989E-2,-2.791249938E-2
1.172637871E0,-1.759999990E-2,1.484999992E-2,-3.162499890E-2
1.175144950E0,-2.736249939E-2,3.849999979E-3,-2.543750033E-2
1.177651334E0,-3.478749841E-2,1.374999993E-4,-1.333750039E-2
1.180158184E0,-3.602499887E-2,3.849999979E-3,3.849999979E-3
1.182666184E0,-2.983750030E-2,6.187499966E-3,2.213750035E-2
1.185173186E0,-1.154999994E-2,5.087499972E-3,3.066249937E-2
1.187679411E0,6.737499963E-3,-3.574999981E-3,3.189999983E-2
1.190186409E0,1.773750037E-2,-1.457499992E-2,2.461249940E-2
1.192694409E0,2.997500077E-2,-2.433750033E-2,1.842499897E-2
1.195201267E0,3.616249934E-2,-2.186249942E-2,5.087499972E-3
1.197707652E0,3.244999796E-2,-7.149999961E-3,-5.912499968E-3
1.200214727E0,2.144999988E-2,7.424999960E-3,-1.443750039E-2
1.202722476E0,4.399999976E-3,1.842499897E-2,-2.543750033E-2
1.205229555E0,-5.362499971E-3,1.608750038E-2,-2.791249938E-2
1.207735709E0,-1.512499992E-2,6.187499966E-3,-2.914999984E-2
1.210242784E0,-2.378750034E-2,-1.099999994E-3,-1.814999990E-2
1.212750707E0,-2.736249939E-2,-1.099999994E-3,-1.099999994E-3
1.215257786E0,-2.502499893E-2,2.612499986E-3,1.608750038E-2
1.217764022E0,-1.402499992E-2,6.187499966E-3,2.818750031E-2
1.220271097E0,-3.024999984E-3,3.849999979E-3,3.189999983E-2
1.222779025E0,1.292499993E-2,-7.149999961E-3,2.818750031E-2
1.225286104E0,2.268750034E-2,-2.309999987E-2,1.842499897E-2
1.227792258E0,2.763750032E-2,-2.557500079E-2,8.662499487E-3
1.230299332E0,2.873750031E-2,-1.457499992E-2,1.374999993E-4
1.232807102E0,2.268750034E-2,1.374999993E-3,-9.624999948E-3
1.235314181E0,9.212499484E-3,1.842499897E-2,-1.814999990E-2
1.237820334E0,-5.362499971E-3,2.461249940E-2,-2.543750033E-2
1.240327640E0,-1.402499992E-2,1.718750037E-2,-2.791249938E-2
1.242835333E0,-2.254999988E-2,1.374999993E-4,-2.433750033E-2
1.245342488E0,-2.859999985E-2,-4.812499974E-3,-1.209999993E-2
1.247848642E0,-2.983750030E-2,-1.099999994E-3,6.324999966E-3
1.250355717E0,-2.131249942E-2,3.849999979E-3,1.966249943E-2
1.252863640E0,-4.124999978E-3,7.424999960E-3,2.708750032E-2
1.255370719E0,1.044999994E-2,2.612499986E-3,2.818750031E-2
1.257876873E0,2.268750034E-2,-1.691249944E-2,2.337500080E-2
1.260383957E0,3.121249937E-2,-3.409999982E-2,1.608750038E-2
1.262891726E0,3.368749842E-2,-2.667500079E-2,5.087499972E-3
1.265398805E0,2.873750031E-2,-7.149999961E-3,-3.574999981E-3
1.267905190E0,2.021249942E-2,1.361249946E-2,-1.086249948E-2
1.270412265E0,5.637499969E-3,2.337500080E-2,-1.938750036E-2
1.272920049E0,-6.599999964E-3,2.089999989E-2,-2.791249938E-2
1.275427051E0,-2.007500082E-2,7.424999960E-3,-2.791249938E-2
1.277933282E0,-2.859999985E-2,-4.812499974E-3,-1.938750036E-2
1.280440357E0,-3.355000168E-2,-5.912499968E-3,-8.387500420E-3
1.282948309E0,-3.107500076E-2,2.612499986E-3,9.899999946E-3
1.285455388E0,-2.131249942E-2,1.237499993E-2,2.461249940E-2
1.287961541E0,-3.024999984E-3,9.899999946E-3,3.189999983E-2
1.290468611E0,1.168750040E-2,-4.812499974E-3,2.942499891E-2
1.292976381E0,2.268750034E-2,-2.667500079E-2,1.966249943E-2
1.295483460E0,3.368749842E-2,-3.533750027E-2,1.113750041E-2
1.297989844E0,3.616249934E-2,-2.433750033E-2,1.374999993E-3
1.300496688E0,3.121249937E-2,1.374999993E-4,-5.912499968E-3
1.303004712E0,1.663750038E-2,2.213750035E-2,-1.567500085E-2
1.305511714E0,3.162499983E-3,2.818750031E-2,-2.186249942E-2
1.308017945E0,-1.154999994E-2,1.484999992E-2,-2.914999984E-2
1.310525020E0,-2.378750034E-2,1.374999993E-4,-3.038750030E-2
1.313032952E0,-3.231250122E-2,-7.149999961E-3,-1.938750036E-2
1.315540031E0,-3.478749841E-2,-2.337499987E-3,-3.574999981E-3
1.318046185E0,-2.983750030E-2,1.113750041E-2,1.608750038E-2
1.320553265E0,-1.759999990E-2,1.966249943E-2,2.818750031E-2
1.323061034E0,-5.499999970E-4,7.424999960E-3,2.818750031E-2
1.325568113E0,1.416249946E-2,-1.457499992E-2,2.584999986E-2
1.328074262E0,2.639999986E-2,-3.286249936E-2,1.608750038E-2
1.330581568E0,3.244999796E-2,-3.162499890E-2,7.424999960E-3
1.333089337E0,3.121249937E-2,-1.209999993E-2,-2.337499987E-3
1.335596416E0,2.639999986E-2,8.662499487E-3,-8.387500420E-3
1.338102565E0,1.044999994E-2,2.337500080E-2,-1.691249944E-2
1.340609640E0,-4.124999978E-3,2.213750035E-2,-2.433750033E-2
1.343117563E0,-1.512499992E-2,7.424999960E-3,-2.543750033E-2
1.345624642E0,-2.502499893E-2,-5.912499968E-3,-2.309999987E-2
1.348130877E0,-2.983750030E-2,-7.149999961E-3,-8.387500420E-3
1.350637875E0,-2.859999985E-2,3.849999979E-3,5.087499972E-3
1.353145645E0,-1.759999990E-2,9.899999946E-3,2.213750035E-2
1.355652723E0,-1.787499990E-3,9.899999946E-3,3.066249937E-2
1.358159108E0,7.974999957E-3,-2.337499987E-3,2.818750031E-2
1.360666178E0,2.021249942E-2,-2.186249942E-2,2.213750035E-2
1.363173947E0,2.763750032E-2,-3.286249936E-2,1.484999992E-2
1.365681026E0,2.997500077E-2,-2.309999987E-2,7.424999960E-3
1.368187180E0,2.763750032E-2,-1.099999994E-3,-5.912499968E-3
1.370694260E0,1.773750037E-2,1.842499897E-2,-1.333750039E-2
1.373202183E0,3.162499983E-3,2.584999986E-2,-2.309999987E-2
1.375709262E0,-1.402499992E-2,1.966249943E-2,-3.038750030E-2
1.378215493E0,-2.378750034E-2,6.187499966E-3,-3.038750030E-2
1.380722491E0,-3.107500076E-2,-7.149999961E-3,-2.309999987E-2
1.383230260E0,-3.478749841E-2,-3.574999981E-3,-5.912499968E-3
1.385737339E0,-2.983750030E-2,7.424999960E-3,1.237499993E-2
1.388243724E0,-1.759999990E-2,1.608750038E-2,2.584999986E-2
1.390750798E0,6.874999963E-4,9.899999946E-3,3.066249937E-2
1.393258568E0,1.663750038E-2,-9.624999948E-3,2.584999986E-2
1.395765618E0,2.873750031E-2,-2.914999984E-2,1.966249943E-2
1.398272002E0,3.368749842E-2,-3.409999982E-2,8.662499487E-3
1.400778846E0,3.368749842E-2,-1.691249944E-2,1.374999993E-4
1.403286765E0,2.516249940E-2,3.849999979E-3,-7.149999961E-3
1.405793843E0,1.168750040E-2,2.337500080E-2,-1.691249944E-2
1.408300074E0,-5.499999970E-4,2.337500080E-2,-2.309999987E-2
1.410807140E0,-1.278750040E-2,1.237499993E-2,-3.038750030E-2
1.413315063E0,-2.254999988E-2,-2.337499987E-3,-2.543750033E-2
1.415822142E0,-3.107500076E-2,-7.149999961E-3,-1.443750039E-2
1.418328296E0,-3.231250122E-2,-1.099999994E-3,3.849999979E-3
1.420835371E0,-2.502499893E-2,9.899999946E-3,2.213750035E-2
1.423343140E0,-1.031249948E-2,1.237499993E-2,3.066249937E-2
1.425850219E0,5.637499969E-3,2.612499986E-3,3.189999983E-2
1.428356373E0,1.897500083E-2,-1.567500085E-2,2.461249940E-2
1.430863448E0,3.121249937E-2,-3.162499890E-2,1.361249946E-2
1.433371371E0,3.616249934E-2,-2.557500079E-2,1.374999993E-3
1.435878450E0,3.121249937E-2,-8.387500420E-3,-8.387500420E-3
1.438384681E0,2.144999988E-2,1.113750041E-2,-1.443750039E-2
1.440891756E0,1.924999990E-3,2.089999989E-2,-2.309999987E-2
1.443399664E0,-1.278750040E-2,2.213750035E-2,-2.667500079E-2
1.445906512E0,-2.378750034E-2,1.113750041E-2,-2.791249938E-2
1.448412896E0,-2.983750030E-2,-2.337499987E-3,-1.814999990E-2
1.450919957E0,-3.231250122E-2,-2.337499987E-3,-7.149999961E-3
1.453427727E0,-2.983750030E-2,3.849999979E-3,8.662499487E-3
1.455934806E0,-2.007500082E-2,8.662499487E-3,2.337500080E-2
1.458440940E0,-3.024999984E-3,6.187499966E-3,2.832499892E-2
1.460948015E0,1.044999994E-2,-3.574999981E-3,2.832499892E-2
1.463456015E0,2.392499894E-2,-2.186249942E-2,1.966249943E-2
1.465962987E0,3.368749842E-2,-3.038750030E-2,1.113750041E-2
1.468469218E0,3.616249934E-2,-2.186249942E-2,3.849999979E-3
1.470976293E0,2.873750031E-2,1.374999993E-4,-5.912499968E-3
1.473484211E0,1.539999992E-2,1.608750038E-2,-1.086249948E-2
1.475991290E0,6.874999963E-4,2.337500080E-2,-2.062499896E-2
1.478497444E0,-1.154999994E-2,1.718750037E-2,-2.667500079E-2
1.481004533E0,-2.131249942E-2,1.374999993E-4,-2.667500079E-2
1.483512302E0,-2.612499893E-2,-7.149999961E-3,-1.691249944E-2
1.486019381E0,-2.983750030E-2,-3.574999981E-3,-1.099999994E-3
1.488525766E0,-2.612499893E-2,9.899999946E-3,1.361249946E-2
1.491032610E0,-1.402499992E-2,1.237499993E-2,2.584999986E-2
1.493540610E0,6.874999963E-4,5.087499972E-3,2.832499892E-2
1.496047612E0,1.416249946E-2,-1.209999993E-2,2.584999986E-2
1.498553843E0,2.392499894E-2,-2.667500079E-2,1.732499897E-2
1.501060918E0,2.997500077E-2,-2.791249938E-2,7.424999960E-3
1.503568841E0,3.121249937E-2,-1.209999993E-2,1.374999993E-4
1.506075920E0,2.021249942E-2,9.899999946E-3,-9.624999948E-3
1.508582073E0,6.737499963E-3,2.213750035E-2,-1.691249944E-2
1.511089148E0,-4.262499977E-3,2.213750035E-2,-2.433750033E-2
1.513596904E0,-1.636249945E-2,6.187499966E-3,-2.791249938E-2
1.516103982E0,-2.502499893E-2,-4.812499974E-3,-2.186249942E-2
1.518610367E0,-2.736249939E-2,-5.912499968E-3,-1.209999993E-2
1.521117192E0,-2.736249939E-2,3.849999979E-3,5.087499972E-3
1.523625115E0,-2.007500082E-2,8.662499487E-3,2.089999989E-2
1.526132194E0,-6.599999964E-3,8.662499487E-3,3.066249937E-2
1.528638439E0,9.212499484E-3,-3.574999981E-3,2.942499891E-2
1.531145514E0,2.144999988E-2,-2.433750033E-2,2.213750035E-2
1.533653437E0,2.873750031E-2,-3.038750030E-2,1.237499993E-2
1.536160516E0,3.244999796E-2,-1.938750036E-2,2.612499986E-3
1.538666733E0,2.749999985E-2,1.374999993E-4,-4.674999975E-3
1.541173731E0,1.416249946E-2,1.237499993E-2,-1.443750039E-2
1.543681731E0,-5.499999970E-4,2.337500080E-2,-1.938750036E-2
1.546188564E0,-1.278750040E-2,1.842499897E-2,-2.543750033E-2
1.548694949E0,-2.378750034E-2,6.187499966E-3,-2.433750033E-2
1.551202023E0,-2.983750030E-2,-1.099999994E-3,-1.567500085E-2
1.553709808E0,-3.231250122E-2,1.374999993E-4,-3.437499981E-3
1.556216887E0,-2.736249939E-2,5.087499972E-3,1.361249946E-2
1.558723040E0,-1.031249948E-2,7.424999960E-3,2.708750032E-2
1.561230115E0,5.637499969E-3,2.612499986E-3,3.189999983E-2
1.563738038E0,1.897500083E-2,-1.333750039E-2,2.942499891E-2
1.566245117E0,3.244999796E-2,-2.791249938E-2,1.966249943E-2
1.568751348E0,3.849999979E-2,-3.162499890E-2,1.237499993E-2
1.571258360E0,3.739999980E-2,-1.567500085E-2,1.374999993E-3
1.573766129E0,2.873750031E-2,3.849999979E-3,-7.149999961E-3
1.576273208E0,1.416249946E-2,1.966249943E-2,-1.691249944E-2
1.578779593E0,-4.262499977E-3,2.213750035E-2,-2.433750033E-2
1.581286668E0,-1.883750036E-2,1.113750041E-2,-2.791249938E-2
1.583794437E0,-2.983750030E-2,1.374999993E-4,-2.791249938E-2
1.586301516E0,-3.355000168E-2,-2.337499987E-3,-1.814999990E-2
1.588807670E0,-3.602499887E-2,6.187499966E-3,1.374999993E-3
1.591314745E0,-2.736249939E-2,1.237499993E-2,1.608750038E-2
1.593822663E0,-1.402499992E-2,1.237499993E-2,2.832499892E-2
1.596329742E0,1.924999990E-3,1.374999993E-4,2.942499891E-2
1.598835973E0,1.773750037E-2,-1.938750036E-2,2.584999986E-2
1.601343043E0,2.873750031E-2,-2.914999984E-2,1.608750038E-2
1.603850966E0,3.492499888E-2,-2.309999987E-2,7.424999960E-3
1.606357814E0,3.368749842E-2,-9.624999948E-3,-1.099999994E-3
1.608864213E0,2.021249942E-2,9.899999946E-3,-9.624999948E-3
1.611371288E0,5.637499969E-3,2.089999989E-2,-1.567500085E-2
1.613879058E0,-5.362499971E-3,1.608750038E-2,-2.543750033E-2
1.616386141E0,-1.278750040E-2,5.087499972E-3,-2.667500079E-2
1.618892525E0,-2.131249942E-2,-7.149999961E-3,-2.186249942E-2
1.621399369E0,-2.736249939E-2,-4.812499974E-3,-7.149999961E-3
1.623907308E0,-2.612499893E-2,5.087499972E-3,8.662499487E-3
1.626414387E0,-1.759999990E-2,1.237499993E-2,2.337500080E-2
1.628920618E0,-3.024999984E-3,6.187499966E-3,2.942499891E-2
1.631427693E0,9.212499484E-3,-8.387500420E-3,2.832499892E-2
1.633935616E0,2.021249942E-2,-2.667500079E-2,2.213750035E-2
1.636442695E0,2.516249940E-2,-2.433750033E-2,1.237499993E-2
1.638948849E0,2.873750031E-2,-1.333750039E-2,1.374999993E-3
1.641455904E0,2.144999988E-2,2.612499986E-3,-5.912499968E-3
1.643963673E0,9.212499484E-3,1.718750037E-2,-1.691249944E-2
1.646470757E0,-4.262499977E-3,2.213750035E-2,-2.433750033E-2
1.648976911E0,-1.402499992E-2,1.608750038E-2,-3.162499890E-2
1.651483986E0,-2.254999988E-2,2.612499986E-3,-2.667500079E-2
1.653991909E0,-2.983750030E-2,-2.337499987E-3,-1.814999990E-2
1.656498988E0,-2.983750030E-2,1.374999993E-3,-2.337499987E-3
1.659005219E0,-2.254999988E-2,6.187499966E-3,1.732499897E-2
1.661512294E0,-9.074999951E-3,7.424999960E-3,2.708750032E-2
1.664020217E0,9.212499484E-3,-1.099999994E-3,3.189999983E-2
1.666527493E0,2.144999988E-2,-1.691249944E-2,2.584999986E-2
1.669034830E0,3.244999796E-2,-2.914999984E-2,1.732499897E-2
1.671540526E0,3.739999980E-2,-2.667500079E-2,6.324999966E-3
1.674048294E0,3.121249937E-2,-9.624999948E-3,-3.437499981E-3
1.676555372E0,2.021249942E-2,7.424999960E-3,-9.624999948E-3
1.679061777E0,5.637499969E-3,1.966249943E-2,-1.938750036E-2
1.681568852E0,-6.599999964E-3,2.089999989E-2,-2.433750033E-2
1.684076544E0,-1.883750036E-2,1.237499993E-2,-2.914999984E-2
1.686583637E0,-2.736249939E-2,2.612499986E-3,-2.309999987E-2
1.689089868E0,-3.355000168E-2,-4.812499974E-3,-9.624999948E-3
1.691596866E0,-3.231250122E-2,3.849999979E-3,6.324999966E-3
1.694104861E0,-2.378750034E-2,7.424999960E-3,2.337500080E-2
1.696611709E0,-7.837500423E-3,6.187499966E-3,3.437500075E-2
1.699118094E0,1.168750040E-2,-3.574999981E-3,3.189999983E-2
1.701625183E0,2.268750034E-2,-2.062499896E-2,2.461249940E-2
1.704132952E0,3.244999796E-2,-3.038750030E-2,1.484999992E-2
1.706640031E0,3.739999980E-2,-2.309999987E-2,3.849999979E-3
1.709146426E0,3.121249937E-2,-2.337499987E-3,-8.387500420E-3
1.711653500E0,1.539999992E-2,1.718750037E-2,-1.567500085E-2
1.714161270E0,1.924999990E-3,2.461249940E-2,-2.433750033E-2
1.716668349E0,-1.154999994E-2,1.608750038E-2,-3.038750030E-2
1.719174502E0,-2.007500082E-2,2.612499986E-3,-3.038750030E-2
1.721681577E0,-2.983750030E-2,-5.912499968E-3,-2.186249942E-2
1.724189490E0,-3.602499887E-2,1.374999993E-4,-2.337499987E-3
1.726696569E0,-3.231250122E-2,8.662499487E-3,1.484999992E-2
1.729202723E0,-2.007500082E-2,9.899999946E-3,2.832499892E-2
1.731709798E0,-5.362499971E-3,5.087499972E-3,3.313750029E-2
1.734217567E0,1.416249946E-2,-1.209999993E-2,2.708750032E-2
1.736724877E0,2.516249940E-2,-2.557500079E-2,1.842499897E-2
1.739231031E0,3.492499888E-2,-2.433750033E-2,6.324999966E-3
1.741738106E0,3.739999980E-2,-1.209999993E-2,-2.337499987E-3
1.744245875E0,2.749999985E-2,2.612499986E-3,-1.086249948E-2
1.746752954E0,9.212499484E-3,1.484999992E-2,-1.567500085E-2
1.749259108E0,-5.362499971E-3,1.966249943E-2,-2.433750033E-2
1.751766183E0,-1.512499992E-2,1.237499993E-2,-2.543750033E-2
1.754274106E0,-2.131249942E-2,1.374999993E-4,-2.062499896E-2
1.756781190E0,-2.983750030E-2,-3.574999981E-3,-1.086249948E-2
1.759287344E0,-2.859999985E-2,1.374999993E-3,5.087499972E-3
1.761794496E0,-1.883750036E-2,3.849999979E-3,1.732499897E-2
1.764302419E0,-4.262499977E-3,3.849999979E-3,2.942499891E-2
1.766809498E0,1.044999994E-2,-3.574999981E-3,2.832499892E-2
1.769315651E0,1.773750037E-2,-1.457499992E-2,2.337500080E-2
1.771822721E0,2.516249940E-2,-2.433750033E-2,1.608750038E-2
1.774330491E0,2.749999985E-2,-1.938750036E-2,5.087499972E-3
1.776837570E0,2.268750034E-2,-5.912499968E-3,-1.099999994E-3
1.779343714E0,1.168750040E-2,9.899999946E-3,-1.209999993E-2
1.781850789E0,6.874999963E-4,2.213750035E-2,-2.062499896E-2
1.784358712E0,-9.074999951E-3,2.213750035E-2,-2.667500079E-2
1.786865791E0,-1.759999990E-2,9.899999946E-3,-3.038750030E-2
1.789372022E0,-2.502499893E-2,-2.337499987E-3,-2.309999987E-2
1.791879097E0,-3.231250122E-2,-3.574999981E-3,-8.387500420E-3
1.794387020E0,-2.983750030E-2,1.374999993E-3,9.899999946E-3
1.796893868E0,-1.636249945E-2,7.424999960E-3,2.337500080E-2
1.799400253E0,3.162499983E-3,7.424999960E-3,2.942499891E-2
1.801907328E0,1.773750037E-2,-5.912499968E-3,2.832499892E-2
1.804415097E0,2.639999986E-2,-2.309999987E-2,1.966249943E-2
1.806922176E0,2.997500077E-2,-2.914999984E-2,1.237499993E-2
1.809428561E0,3.244999796E-2,-1.814999990E-2,1.374999993E-4
1.811935405E0,2.268750034E-2,1.374999993E-4,-1.086249948E-2
1.814443405E0,9.212499484E-3,1.718750037E-2,-1.938750036E-2
1.816950407E0,-1.787499990E-3,2.461249940E-2,-2.667500079E-2
1.819456638E0,-1.402499992E-2,1.718750037E-2,-2.914999984E-2
1.821963636E0,-2.378750034E-2,1.374999993E-3,-2.667500079E-2
1.824471636E0,-3.231250122E-2,-4.812499974E-3,-1.333750039E-2
1.826978695E0,-3.231250122E-2,-3.574999981E-3,3.849999979E-3
1.829484848E0,-2.736249939E-2,2.612499986E-3,1.966249943E-2
1.831991923E0,-1.031249948E-2,8.662499487E-3,3.066249937E-2
1.834499674E0,6.737499963E-3,3.849999979E-3,3.066249937E-2
1.837006752E0,2.144999988E-2,-1.333750039E-2,2.584999986E-2
1.839513137E0,2.997500077E-2,-3.038750030E-2,1.484999992E-2
1.842020212E0,3.849999979E-2,-2.914999984E-2,5.087499972E-3
1.844527981E0,3.121249937E-2,-1.333750039E-2,-4.674999975E-3
1.847034983E0,2.144999988E-2,1.113750041E-2,-1.333750039E-2
1.849541219E0,4.399999976E-3,2.337500080E-2,-1.938750036E-2
1.852048294E0,-9.074999951E-3,2.584999986E-2,-2.914999984E-2
1.854556217E0,-2.131249942E-2,1.113750041E-2,-2.914999984E-2
1.857063296E0,-3.107500076E-2,-1.099999994E-3,-2.309999987E-2
1.859569450E0,-3.602499887E-2,-1.099999994E-3,-8.387500420E-3
1.862076525E0,-3.231250122E-2,3.849999979E-3,7.424999960E-3
1.864584299E0,-2.007500082E-2,8.662499487E-3,2.089999989E-2
1.867091378E0,-5.362499971E-3,7.424999960E-3,3.066249937E-2
1.869597763E0,1.168750040E-2,-3.574999981E-3,2.832499892E-2
1.872104607E0,2.392499894E-2,-2.186249942E-2,2.337500080E-2
1.874612607E0,3.368749842E-2,-2.914999984E-2,1.361249946E-2
1.877119609E0,3.492499888E-2,-2.186249942E-2,3.849999979E-3
1.879625839E0,2.873750031E-2,-3.574999981E-3,-5.912499968E-3
1.882132914E0,1.663750038E-2,1.361249946E-2,-1.443750039E-2
1.884640837E0,1.924999990E-3,2.213750035E-2,-2.062499896E-2
1.887147916E0,-1.278750040E-2,1.966249943E-2,-2.914999984E-2
1.889654127E0,-1.883750036E-2,3.849999979E-3,-2.667500079E-2
1.892161125E0,-2.502499893E-2,-3.574999981E-3,-1.691249944E-2
1.894669125E0,-2.983750030E-2,-4.812499974E-3,-2.337499987E-3
1.897176214E0,-2.502499893E-2,5.087499972E-3,1.608750038E-2
1.899682368E0,-1.278750040E-2,8.662499487E-3,2.708750032E-2
1.902189443E0,4.399999976E-3,5.087499972E-3,3.189999983E-2
1.904697212E0,1.416249946E-2,-1.209999993E-2,2.708750032E-2
1.907204291E0,2.144999988E-2,-2.667500079E-2,2.213750035E-2
1.909710445E0,2.639999986E-2,-2.791249938E-2,1.113750041E-2
1.912217501E0,2.516249940E-2,-1.209999993E-2,-1.099999994E-3
1.914725424E0,1.897500083E-2,9.899999946E-3,-1.086249948E-2
1.917232503E0,6.737499963E-3,2.584999986E-2,-2.186249942E-2
1.919738724E0,-3.024999984E-3,2.337500080E-2,-2.914999984E-2
1.922245722E0,-1.402499992E-2,8.662499487E-3,-3.286249936E-2
1.924753722E0,-2.254999988E-2,-3.574999981E-3,-2.543750033E-2
1.927260570E0,-2.873750031E-2,-5.912499968E-3,-8.387500420E-3
1.929766940E0,-2.749999985E-2,1.374999993E-4,9.899999946E-3
1.932274015E0,-1.883750036E-2,8.662499487E-3,2.584999986E-2
1.934781785E0,-3.024999984E-3,1.113750041E-2,3.189999983E-2
1.937288873E0,1.168750040E-2,-3.574999981E-3,3.066249937E-2
1.939795026E0,2.268750034E-2,-2.186249942E-2,2.337500080E-2
1.942302101E0,2.997500077E-2,-2.914999984E-2,1.237499993E-2
1.944810009E0,3.121249937E-2,-2.062499896E-2,2.612499986E-3
1.947317088E0,2.502499893E-2,-2.337499987E-3,-9.624999948E-3
1.949823319E0,1.168750040E-2,1.484999992E-2,-1.691249944E-2
1.952330317E0,-4.262499977E-3,2.708750032E-2,-2.419999987E-2
1.954838317E0,-1.649999991E-2,1.966249943E-2,-2.791249938E-2
1.957345165E0,-2.626249939E-2,9.899999946E-3,-2.419999987E-2
1.959851550E0,-3.107500076E-2,-3.574999981E-3,-1.443750039E-2
1.962358625E0,-3.231250122E-2,-5.912499968E-3,1.374999993E-4
1.964866394E0,-2.378750034E-2,2.612499986E-3,1.608750038E-2
1.967373473E0,-9.074999951E-3,6.324999966E-3,3.066249937E-2
1.969879858E0,6.737499963E-3,5.087499972E-3,3.313750029E-2
1.972386918E0,2.021249942E-2,-9.624999948E-3,2.832499892E-2
1.974894687E0,3.368749842E-2,-2.914999984E-2,1.966249943E-2
1.977401689E0,3.726249933E-2,-3.533750027E-2,8.662499487E-3
1.979907916E0,3.726249933E-2,-1.814999990E-2,-1.099999994E-3
1.982414990E0,2.502499893E-2,5.087499972E-3,-1.209999993E-2
1.984922914E0,9.212499484E-3,2.461249940E-2,-1.814999990E-2
1.987430012E0,-5.499999970E-3,2.708750032E-2,-2.543750033E-2
1.989936165E0,-2.007500082E-2,1.484999992E-2,-3.038750030E-2
1.992443240E0,-2.983750030E-2,1.374999993E-4,-2.543750033E-2
1.994951010E0,-3.726249933E-2,-5.912499968E-3,-1.567500085E-2
1.997458093E0,-3.602499887E-2,1.374999993E-4,2.612499986E-3
1.999964478E0,-2.873750031E-2,1.237499993E-2,1.966249943E-2
2.002471322E0,-1.278750040E-2,1.484999992E-2,2.942499891E-2
2.004979331E0,4.262499977E-3,2.612499986E-3,3.189999983E-2
2.007486333E0,1.897500083E-2,-1.443750039E-2,2.461249940E-2
2.009992564E0,2.997500077E-2,-3.038750030E-2,1.732499897E-2
2.012499620E0,3.726249933E-2,-2.791249938E-2,3.849999979E-3
2.015007543E0,3.244999796E-2,-1.086249948E-2,-2.337499987E-3
2.017514622E0,2.268750034E-2,1.237499993E-2,-1.319999993E-2
2.020020790E0,1.168750040E-2,2.461249940E-2,-2.186249942E-2
2.022527865E0,-1.787499990E-3,1.842499897E-2,-2.543750033E-2
2.025035634E0,-1.154999994E-2,5.087499972E-3,-2.914999984E-2
2.027542713E0,-2.254999988E-2,-9.624999948E-3,-1.814999990E-2
2.030049098E0,-2.873750031E-2,-7.149999961E-3,-4.674999975E-3
2.032555947E0,-2.749999985E-2,5.087499972E-3,1.484999992E-2
2.035063947E0,-1.649999991E-2,1.237499993E-2,2.708750032E-2
2.037571026E0,-3.024999984E-3,8.662499487E-3,2.942499891E-2
2.040077179E0,7.974999957E-3,-7.149999961E-3,2.708750032E-2
2.042584254E0,1.773750037E-2,-2.433750033E-2,1.732499897E-2
2.045092177E0,2.392499894E-2,-2.791249938E-2,1.113750041E-2
2.047599256E0,2.502499893E-2,-1.333750039E-2,-2.337499987E-3
2.050105487E0,1.897500083E-2,5.087499972E-3,-8.387500420E-3
2.052612562E0,6.737499963E-3,2.089999989E-2,-1.691249944E-2
2.055120485E0,-5.499999970E-3,2.461249940E-2,-2.543750033E-2
2.057627333E0,-1.278750040E-2,1.842499897E-2,-2.667500079E-2
2.060133718E0,-2.007500082E-2,-1.099999994E-3,-2.543750033E-2
2.062640793E0,-2.378750034E-2,-9.624999948E-3,-1.443750039E-2
2.065148562E0,-2.626249939E-2,-3.574999981E-3,2.612499986E-3
2.067655636E0,-1.649999991E-2,6.324999966E-3,1.732499897E-2
2.070161790E0,-3.024999984E-3,7.424999960E-3,2.832499892E-2
2.072668865E0,1.044999994E-2,1.374999993E-3,2.942499891E-2
2.075176788E0,2.392499894E-2,-1.814999990E-2,2.584999986E-2
2.077683867E0,2.997500077E-2,-3.286249936E-2,1.608750038E-2
2.080190098E0,3.478749841E-2,-2.667500079E-2,6.324999966E-3
2.082697106E0,2.749999985E-2,-7.149999961E-3,-3.437499981E-3
2.085205106E0,1.649999991E-2,1.361249946E-2,-1.319999993E-2
2.087711954E0,1.924999990E-3,2.461249940E-2,-1.938750036E-2
2.090218352E0,-1.278750040E-2,2.461249940E-2,-2.914999984E-2
2.092725427E0,-2.254999988E-2,9.899999946E-3,-2.791249938E-2
2.095233197E0,-3.231250122E-2,-2.337499987E-3,-2.419999987E-2
2.097740262E0,-3.478749841E-2,-3.574999981E-3,-8.387500420E-3
2.100246646E0,-3.231250122E-2,5.087499972E-3,1.113750041E-2
2.102753721E0,-1.883750036E-2,1.237499993E-2,2.337500080E-2
2.105261490E0,-1.787499990E-3,7.424999960E-3,3.313750029E-2
2.107768502E0,1.292499993E-2,-4.674999975E-3,3.066249937E-2
2.110274733E0,2.502499893E-2,-2.667500079E-2,2.461249940E-2
2.112781731E0,3.602499887E-2,-3.409999982E-2,1.361249946E-2
2.115289751E0,3.973750025E-2,-2.186249942E-2,2.612499986E-3
2.117796599E0,3.121249937E-2,3.849999979E-3,-7.149999961E-3
2.120302984E0,1.773750037E-2,1.842499897E-2,-1.691249944E-2
2.122810059E0,3.024999984E-3,2.461249940E-2,-2.309999987E-2
2.125317828E0,-1.278750040E-2,1.484999992E-2,-3.038750030E-2
2.127824907E0,-2.378750034E-2,-1.099999994E-3,-2.667500079E-2
2.130331292E0,-3.231250122E-2,-4.674999975E-3,-1.691249944E-2
2.132838136E0,-3.355000168E-2,3.849999979E-3,-2.337499987E-3
2.135346136E0,-3.107500076E-2,1.237499993E-2,1.856249943E-2
2.137853138E0,-2.007500082E-2,1.237499993E-2,2.708750032E-2
2.140359373E0,-3.024999984E-3,3.849999979E-3,3.189999983E-2
2.142866447E0,1.292499993E-2,-1.567500085E-2,2.461249940E-2
2.145374371E0,2.749999985E-2,-2.667500079E-2,1.484999992E-2
2.147881436E0,3.478749841E-2,-2.433750033E-2,5.087499972E-3
2.150387589E0,3.368749842E-2,-7.149999961E-3,-4.674999975E-3
2.152894664E0,2.749999985E-2,6.324999966E-3,-1.319999993E-2
2.155402443E0,9.212499484E-3,1.732499897E-2,-2.062499896E-2
2.157909521E0,-6.737499963E-3,1.966249943E-2,-2.419999987E-2
2.160415906E0,-1.526249945E-2,8.662499487E-3,-2.667500079E-2
2.162922977E0,-2.131249942E-2,-2.337499987E-3,-2.062499896E-2
2.165430746E0,-2.626249939E-2,-3.574999981E-3,-8.387500420E-3
2.167937825E0,-2.873750031E-2,3.849999979E-3,8.662499487E-3
2.170443979E0,-1.883750036E-2,7.424999960E-3,2.584999986E-2
2.172951054E0,-4.262499977E-3,7.424999960E-3,2.942499891E-2
2.175458967E0,9.212499484E-3,-4.674999975E-3,2.832499892E-2
2.177966046E0,1.773750037E-2,-2.186249942E-2,2.337500080E-2
2.180472200E0,2.873750031E-2,-2.914999984E-2,1.361249946E-2
2.182979338E0,2.873750031E-2,-1.691249944E-2,5.087499972E-3
2.185487030E0,2.268750034E-2,1.374999993E-3,-5.912499968E-3
2.187994340E0,1.292499993E-2,1.608750038E-2,-1.209999993E-2
2.190500494E0,-5.499999970E-4,2.461249940E-2,-2.309999987E-2
2.193007338E0,-1.154999994E-2,1.608750038E-2,-2.914999984E-2
2.195515338E0,-2.131249942E-2,2.612499986E-3,-2.914999984E-2
2.198022436E0,-2.749999985E-2,-4.674999975E-3,-2.062499896E-2
2.200528589E0,-2.749999985E-2,1.374999993E-4,-3.437499981E-3
2.203035664E0,-2.502499893E-2,6.324999966E-3,1.113750041E-2
2.205543587E0,-1.402499992E-2,9.899999946E-3,2.584999986E-2
2.208050666E0,1.924999990E-3,5.087499972E-3,2.942499891E-2
2.210556897E0,1.649999991E-2,-1.209999993E-2,2.708750032E-2
2.213063895E0,2.626249939E-2,-2.667500079E-2,1.966249943E-2
2.215571895E0,3.244999796E-2,-2.667500079E-2,8.662499487E-3
2.218078743E0,3.244999796E-2,-1.209999993E-2,-1.099999994E-3
2.220585128E0,2.144999988E-2,7.424999960E-3,-1.086249948E-2
2.223092208E0,7.974999957E-3,2.337500080E-2,-1.814999990E-2
2.225599977E0,-5.499999970E-3,2.089999989E-2,-2.419999987E-2
2.228107056E0,-1.649999991E-2,1.113750041E-2,-2.791249938E-2
2.230613209E0,-2.502499893E-2,-2.337499987E-3,-2.186249942E-2
2.233120284E0,-3.231250122E-2,-1.099999994E-3,-1.086249948E-2
2.235628207E0,-3.107500076E-2,2.612499986E-3,7.562499959E-3
2.238135383E0,-2.378750034E-2,8.662499487E-3,2.213750035E-2
2.240641537E0,-9.074999951E-3,7.424999960E-3,3.189999983E-2
2.243148612E0,7.974999957E-3,-3.574999981E-3,3.189999983E-2
2.245656539E0,2.392499894E-2,-1.938750036E-2,2.337500080E-2
2.248163387E0,3.368749842E-2,-2.914999984E-2,1.484999992E-2
2.250669771E0,3.726249933E-2,-2.186249942E-2,2.612499986E-3
2.253176855E0,3.244999796E-2,-8.387500420E-3,-4.674999975E-3
2.255684625E0,1.773750037E-2,9.899999946E-3,-1.319999993E-2
2.258191704E0,3.024999984E-3,2.461249940E-2,-2.186249942E-2
2.260697857E0,-1.278750040E-2,2.461249940E-2,-2.543750033E-2
2.263205187E0,-2.131249942E-2,9.899999946E-3,-2.791249938E-2
2.265712956E0,-3.107500076E-2,1.374999993E-4,-2.062499896E-2
2.268220035E0,-3.726249933E-2,1.374999993E-4,-9.624999948E-3
2.270726179E0,-3.478749841E-2,5.087499972E-3,8.662499487E-3
2.273233254E0,-2.378750034E-2,1.113750041E-2,2.213750035E-2
2.275741177E0,-5.499999970E-3,7.424999960E-3,2.708750032E-2
2.278248256E0,1.292499993E-2,-3.574999981E-3,2.708750032E-2
2.280754410E0,2.502499893E-2,-2.062499896E-2,1.856249943E-2
2.283261485E0,3.368749842E-2,-2.791249938E-2,1.361249946E-2
2.285769254E0,3.602499887E-2,-2.062499896E-2,1.374999993E-4
2.288276333E0,2.873750031E-2,-3.574999981E-3,-5.912499968E-3
2.290782718E0,1.649999991E-2,1.361249946E-2,-1.209999993E-2
2.293289793E0,4.262499977E-3,2.089999989E-2,-2.062499896E-2
2.295797562E0,-7.837500423E-3,1.842499897E-2,-2.419999987E-2
2.298304569E0,-1.773750037E-2,2.612499986E-3,-2.667500079E-2
2.300810800E0,-2.502499893E-2,-5.912499968E-3,-1.691249944E-2
2.303317879E0,-3.107500076E-2,-5.912499968E-3,1.374999993E-4
2.305825879E0,-2.626249939E-2,5.087499972E-3,1.608750038E-2
2.308332882E0,-1.278750040E-2,1.113750041E-2,2.708750032E-2
2.310839126E0,1.924999990E-3,8.662499487E-3,2.942499891E-2
2.313346124E0,1.402499992E-2,-9.624999948E-3,2.584999986E-2
2.315854124E0,2.144999988E-2,-2.543750033E-2,1.732499897E-2
2.318360972E0,2.626249939E-2,-2.667500079E-2,8.662499487E-3
2.320867357E0,2.502499893E-2,-9.624999948E-3,-1.099999994E-3
2.323374432E0,1.649999991E-2,1.237499993E-2,-9.624999948E-3
2.325882187E0,5.499999970E-3,2.337500080E-2,-1.567500085E-2
2.328389266E0,-4.262499977E-3,2.213750035E-2,-2.791249938E-2
2.330895420E0,-1.278750040E-2,8.662499487E-3,-2.914999984E-2
2.333402524E0,-2.131249942E-2,-2.337499987E-3,-2.543750033E-2
2.335910447E0,-2.502499893E-2,-5.912499968E-3,-1.086249948E-2
2.338417526E0,-2.626249939E-2,1.374999993E-3,8.662499487E-3
2.340923752E0,-1.883750036E-2,7.424999960E-3,2.337500080E-2
2.343430827E0,-3.024999984E-3,6.324999966E-3,3.189999983E-2
2.345938750E0,1.044999994E-2,-1.099999994E-3,2.832499892E-2
2.348445829E0,2.502499893E-2,-2.186249942E-2,2.213750035E-2
2.350951983E0,3.121249937E-2,-3.038750030E-2,1.113750041E-2
2.353459057E0,3.244999796E-2,-2.186249942E-2,1.374999993E-3
2.355966827E0,2.626249939E-2,-3.574999981E-3,-5.912499968E-3
2.358473906E0,1.292499993E-2,1.361249946E-2,-1.319999993E-2
2.360980059E0,-1.787499990E-3,2.708750032E-2,-1.938750036E-2
2.363487134E0,-1.402499992E-2,2.213750035E-2,-2.667500079E-2
2.365995057E0,-2.378750034E-2,7.424999960E-3,-2.543750033E-2
2.368502117E0,-3.231250122E-2,-4.674999975E-3,-1.814999990E-2
2.371008348E0,-3.478749841E-2,-2.337499987E-3,-3.437499981E-3
2.373515423E0,-2.749999985E-2,5.087499972E-3,1.361249946E-2
2.376023346E0,-1.402499992E-2,7.424999960E-3,2.584999986E-2
2.378530420E0,5.499999970E-3,5.087499972E-3,2.942499891E-2
2.381036574E0,2.021249942E-2,-8.387500420E-3,2.584999986E-2
2.383543649E0,3.121249937E-2,-2.791249938E-2,1.966249943E-2
2.386051634E0,3.726249933E-2,-3.409999982E-2,8.662499487E-3
2.388558482E0,3.478749841E-2,-1.938750036E-2,-1.099999994E-3
2.391064867E0,2.626249939E-2,2.612499986E-3,-8.387500420E-3
2.393571716E0,1.168750040E-2,2.089999989E-2,-1.691249944E-2
2.396079639E0,-3.024999984E-3,2.461249940E-2,-2.419999987E-2
2.398586795E0,-1.773750037E-2,1.732499897E-2,-3.038750030E-2
2.401092949E0,-2.749999985E-2,1.374999993E-4,-2.667500079E-2
2.403600024E0,-3.602499887E-2,-7.149999961E-3,-1.567500085E-2
2.406107947E0,-3.726249933E-2,2.612499986E-3,1.374999993E-4
2.408615012E0,-2.873750031E-2,1.113750041E-2,1.856249943E-2
2.411121242E0,-1.278750040E-2,1.361249946E-2,2.708750032E-2
2.413628240E0,4.262499977E-3,1.374999993E-3,3.066249937E-2
2.416136000E0,1.897500083E-2,-1.691249944E-2,2.461249940E-2
2.418643079E0,2.873750031E-2,-3.162499890E-2,1.732499897E-2
2.421149463E0,3.616249934E-2,-2.433750033E-2,8.662499487E-3
2.423656514E0,3.121249937E-2,-8.387500420E-3,-4.674999975E-3
2.426164283E0,2.144999988E-2,8.662499487E-3,-1.086249948E-2
2.428671362E0,6.737499963E-3,2.337500080E-2,-2.062499896E-2
2.431177516E0,-3.024999984E-3,1.966249943E-2,-2.667500079E-2
2.433684822E0,-1.526249945E-2,5.087499972E-3,-2.667500079E-2
2.436192514E0,-2.502499893E-2,-7.149999961E-3,-2.186249942E-2
2.438699593E0,-2.983750030E-2,-2.337499987E-3,-3.437499981E-3
2.441205824E0,-2.749999985E-2,5.087499972E-3,1.113750041E-2
2.443712822E0,-1.649999991E-2,1.237499993E-2,2.708750032E-2
2.446220591E0,-1.787499990E-3,7.424999960E-3,3.066249937E-2
2.448727680E0,9.212499484E-3,-3.574999981E-3,2.832499892E-2
2.451234065E0,1.773750037E-2,-2.186249942E-2,2.089999989E-2
2.453741140E0,2.516249940E-2,-2.667500079E-2,9.899999946E-3
2.456248905E0,2.626249939E-2,-1.457499992E-2,1.374999993E-4
2.458755984E0,1.773750037E-2,2.612499986E-3,-8.387500420E-3
2.461262368E0,9.212499484E-3,1.842499897E-2,-1.691249944E-2
2.463769212E0,-4.262499977E-3,2.584999986E-2,-2.419999987E-2
2.466277212E0,-1.526249945E-2,1.842499897E-2,-2.914999984E-2
2.468784215E0,-2.131249942E-2,1.374999993E-3,-2.186249942E-2
2.471290445E0,-2.626249939E-2,-5.912499968E-3,-1.443750039E-2
2.473797515E0,-2.859999985E-2,-3.574999981E-3,1.374999993E-3
2.476305438E0,-2.007500082E-2,5.087499972E-3,1.842499897E-2
2.478812517E0,-5.499999970E-3,7.424999960E-3,2.832499892E-2
2.481318666E0,1.168750040E-2,2.612499986E-3,2.942499891E-2
2.483825741E0,2.392499894E-2,-1.691249944E-2,2.213750035E-2
2.486333510E0,3.121249937E-2,-3.286249936E-2,1.732499897E-2
2.488840589E0,3.244999796E-2,-2.914999984E-2,3.849999979E-3
2.491346974E0,2.749999985E-2,-1.086249948E-2,-2.337499987E-3
2.493853808E0,1.773750037E-2,1.237499993E-2,-9.624999948E-3
2.496361808E0,4.262499977E-3,2.461249940E-2,-1.814999990E-2
2.498868810E0,-9.074999951E-3,2.584999986E-2,-2.419999987E-2
2.501375041E0,-2.254999988E-2,1.113750041E-2,-2.791249938E-2
2.503882116E0,-3.107500076E-2,-2.337499987E-3,-2.309999987E-2
2.506390039E0,-3.478749841E-2,-5.912499968E-3,-1.086249948E-2
2.508897118E0,-3.231250122E-2,1.374999993E-3,7.562499959E-3
2.511403272E0,-1.883750036E-2,1.113750041E-2,2.461249940E-2
2.513910346E0,-3.024999984E-3,1.113750041E-2,3.313750029E-2
2.516418116E0,1.416249946E-2,-2.337499987E-3,3.066249937E-2
2.518925440E0,2.626249939E-2,-2.433750033E-2,2.213750035E-2
2.521431594E0,3.368749842E-2,-3.533750027E-2,1.237499993E-2
2.523938669E0,3.726249933E-2,-2.914999984E-2,2.612499986E-3
2.526446466E0,3.121249937E-2,-3.574999981E-3,-5.912499968E-3
2.528953545E0,1.897500083E-2,1.966249943E-2,-1.443750039E-2
2.531459699E0,1.924999990E-3,3.066249937E-2,-2.419999987E-2
2.533966774E0,-1.402499992E-2,1.966249943E-2,-2.914999984E-2
2.536474697E0,-2.378750034E-2,1.374999993E-4,-3.038750030E-2
2.538981776E0,-3.231250122E-2,-8.387500420E-3,-1.938750036E-2
2.541488007E0,-3.726249933E-2,-3.574999981E-3,-4.674999975E-3
2.543995082E0,-3.107500076E-2,1.113750041E-2,1.237499993E-2
2.546503005E0,-1.759999990E-2,1.842499897E-2,2.708750032E-2
2.549010084E0,-3.024999984E-3,9.899999946E-3,2.832499892E-2
2.551516224E0,1.168750040E-2,-1.209999993E-2,2.584999986E-2
2.554023299E0,2.516249940E-2,-3.038750030E-2,1.484999992E-2
2.556531068E0,3.121249937E-2,-3.038750030E-2,7.562499959E-3
2.559038133E0,3.368749842E-2,-1.457499992E-2,-1.099999994E-3
2.561544287E0,2.516249940E-2,6.324999966E-3,-9.624999948E-3
2.564051362E0,1.292499993E-2,1.966249943E-2,-1.567500085E-2
2.566559285E0,-1.787499990E-3,2.213750035E-2,-2.309999987E-2
2.569066364E0,-1.402499992E-2,1.113750041E-2,-2.419999987E-2
2.571572594E0,-2.131249942E-2,-4.674999975E-3,-2.309999987E-2
2.574079592E0,-2.626249939E-2,-7.149999961E-3,-1.086249948E-2
2.576587596E0,-2.502499893E-2,1.374999993E-4,5.087499972E-3
2.579094445E0,-1.759999990E-2,9.899999946E-3,1.732499897E-2
2.581600829E0,-3.024999984E-3,1.113750041E-2,2.832499892E-2
2.584107909E0,7.974999957E-3,-1.099999994E-3,2.584999986E-2
2.586615678E0,1.773750037E-2,-1.938750036E-2,2.337500080E-2
2.589122757E0,2.626249939E-2,-3.038750030E-2,1.484999992E-2
2.591628911E0,2.749999985E-2,-2.433750033E-2,6.324999966E-3
2.594136217E0,2.392499894E-2,-2.337499987E-3,-2.337499987E-3
2.596643986E0,1.168750040E-2,1.718750037E-2,-1.209999993E-2
2.599151065E0,-5.499999970E-4,2.708750032E-2,-1.814999990E-2
2.601657219E0,-1.031249948E-2,2.213750035E-2,-2.914999984E-2
2.604164294E0,-2.131249942E-2,8.662499487E-3,-2.791249938E-2
2.606672217E0,-2.626249939E-2,-7.149999961E-3,-2.309999987E-2
2.609179286E0,-3.107500076E-2,-7.149999961E-3,-8.387500420E-3
2.611685517E0,-2.749999985E-2,2.612499986E-3,1.113750041E-2
2.614192515E0,-1.278750040E-2,1.361249946E-2,2.461249940E-2
2.616700284E0,3.162499983E-3,1.113750041E-2,3.066249937E-2
2.619207348E0,1.526249945E-2,-7.149999961E-3,2.832499892E-2
2.621713732E0,2.749999985E-2,-2.914999984E-2,2.213750035E-2
2.624220807E0,3.244999796E-2,-3.767500073E-2,9.899999946E-3
2.626728591E0,3.244999796E-2,-1.938750036E-2,1.374999993E-3
2.629235670E0,2.516249940E-2,5.087499972E-3,-5.912499968E-3
2.631741824E0,1.168750040E-2,2.337500080E-2,-1.938750036E-2
2.634248899E0,-1.787499990E-3,2.584999986E-2,-2.419999987E-2
2.636756903E0,-1.526249945E-2,1.237499993E-2,-2.914999984E-2
2.639263905E0,-2.378750034E-2,-1.099999994E-3,-2.543750033E-2
2.641770136E0,-3.231250122E-2,-7.149999961E-3,-1.443750039E-2
2.644277125E0,-3.355000168E-2,1.374999993E-4,3.849999979E-3
2.646784894E0,-2.378750034E-2,9.899999946E-3,2.089999989E-2
2.649291973E0,-1.031249948E-2,1.237499993E-2,3.066249937E-2
2.651798367E0,4.262499977E-3,2.612499986E-3,3.313750029E-2
2.654305442E0,1.897500083E-2,-1.691249944E-2,2.584999986E-2
2.656813211E0,2.997500077E-2,-3.409999982E-2,1.484999992E-2
2.659320290E0,3.616249934E-2,-3.038750030E-2,3.849999979E-3
2.661826675E0,3.368749842E-2,-7.149999961E-3,-7.149999961E-3
2.664333519E0,1.897500083E-2,1.484999992E-2,-1.086249948E-2
2.666841005E0,4.262499977E-3,2.584999986E-2,-1.938750036E-2
2.669348320E0,-1.154999994E-2,2.213750035E-2,-2.667500079E-2
2.671854761E0,-2.131249942E-2,6.324999966E-3,-2.914999984E-2
2.674361836E0,-3.107500076E-2,-4.674999975E-3,-2.309999987E-2
2.676869759E0,-3.478749841E-2,-3.574999981E-3,-8.387500420E-3
2.679376838E0,-3.231250122E-2,7.424999960E-3,7.562499959E-3
2.681882992E0,-1.883750036E-2,1.361249946E-2,2.213750035E-2
2.684390062E0,-5.499999970E-3,8.662499487E-3,2.942499891E-2
2.686897831E0,9.212499484E-3,-5.912499968E-3,2.708750032E-2
2.689404910E0,2.392499894E-2,-2.791249938E-2,2.089999989E-2
2.691911290E0,3.368749842E-2,-3.162499890E-2,1.361249946E-2
2.694418134E0,3.726249933E-2,-2.186249942E-2,5.087499972E-3
2.696926134E0,2.997500077E-2,1.374999993E-3,-5.912499968E-3
2.699433151E0,1.897500083E-2,1.718750037E-2,-1.443750039E-2
2.701939382E0,3.162499983E-3,2.337500080E-2,-2.186249942E-2
2.704446457E0,-9.074999951E-3,1.484999992E-2,-2.791249938E-2
2.706954389E0,-1.883750036E-2,-1.099999994E-3,-2.419999987E-2
2.709461468E0,-2.749999985E-2,-7.149999961E-3,-1.814999990E-2
2.711967637E0,-2.859999985E-2,-3.574999981E-3,1.374999993E-4
2.714474712E0,-2.626249939E-2,8.662499487E-3,1.732499897E-2
2.716982481E0,-1.402499992E-2,1.237499993E-2,2.708750032E-2
2.719489560E0,6.874999963E-4,6.324999966E-3,3.066249937E-2
2.721995944E0,1.416249946E-2,-1.209999993E-2,2.461249940E-2
2.724502789E0,2.268750034E-2,-3.038750030E-2,1.608750038E-2
2.727010789E0,2.626249939E-2,-2.667500079E-2,6.324999966E-3
2.729517868E0,2.626249939E-2,-1.209999993E-2,-1.099999994E-3
2.732024021E0,1.773750037E-2,1.113750041E-2,-8.387500420E-3
2.734531096E0,5.499999970E-3,2.584999986E-2,-1.814999990E-2
2.737039019E0,-6.599999964E-3,2.461249940E-2,-2.419999987E-2
2.739546098E0,-1.526249945E-2,7.424999960E-3,-2.914999984E-2
2.742052329E0,-2.254999988E-2,-8.387500420E-3,-2.419999987E-2
2.744559404E0,-2.749999985E-2,-8.387500420E-3,-1.209999993E-2
2.747067312E0,-2.378750034E-2,3.849999979E-3,5.087499972E-3
2.749574391E0,-1.759999990E-2,1.237499993E-2,2.461249940E-2
2.752080545E0,-4.262499977E-3,1.237499993E-2,2.832499892E-2
2.754587635E0,1.168750040E-2,-2.337499987E-3,2.832499892E-2
2.757095404E0,2.392499894E-2,-2.791249938E-2,2.089999989E-2
2.759602483E0,2.997500077E-2,-3.409999982E-2,1.113750041E-2
2.762108652E0,3.121249937E-2,-1.814999990E-2,1.374999993E-4
2.764615727E0,2.626249939E-2,2.612499986E-3,-7.149999961E-3
2.767123650E0,1.168750040E-2,1.718750037E-2,-1.209999993E-2
2.769630806E0,-3.024999984E-3,2.461249940E-2,-2.186249942E-2
2.772136970E0,-1.402499992E-2,1.718750037E-2,-2.667500079E-2
2.774644044E0,-2.502499893E-2,2.612499986E-3,-2.791249938E-2
2.777151968E0,-2.983750030E-2,-4.674999975E-3,-1.814999990E-2
2.779659031E0,-3.231250122E-2,-1.099999994E-3,-1.099999994E-3
2.782165185E0,-2.749999985E-2,8.662499487E-3,1.484999992E-2
2.784672260E0,-1.278750040E-2,9.899999946E-3,2.832499892E-2
2.787179991E0,3.162499983E-3,5.087499972E-3,3.066249937E-2
2.789687070E0,1.773750037E-2,-1.457499992E-2,2.832499892E-2
2.792193455E0,3.121249937E-2,-3.409999982E-2,1.966249943E-2
2.794700530E0,4.097500071E-2,-3.286249936E-2,9.899999946E-3
2.797208299E0,3.849999979E-2,-1.457499992E-2,1.374999993E-3
2.799715378E0,2.749999985E-2,6.324999966E-3,-7.149999961E-3
2.802221532E0,1.168750040E-2,2.089999989E-2,-1.209999993E-2
2.804728607E0,-4.262499977E-3,2.213750035E-2,-2.419999987E-2
2.807236530E0,-1.759999990E-2,1.113750041E-2,-2.914999984E-2
2.809743609E0,-2.749999985E-2,-1.099999994E-3,-2.791249938E-2
2.812249840E0,-3.478749841E-2,-3.574999981E-3,-1.691249944E-2
2.814756838E0,-3.478749841E-2,5.087499972E-3,1.374999993E-4
2.817264838E0,-2.983750030E-2,1.361249946E-2,1.608750038E-2
2.819771691E0,-1.649999991E-2,1.484999992E-2,2.708750032E-2
2.822278076E0,1.924999990E-3,-2.337499987E-3,2.832499892E-2
2.824785150E0,1.526249945E-2,-2.062499896E-2,2.337500080E-2
2.827292920E0,2.749999985E-2,-2.914999984E-2,1.484999992E-2
2.829799979E0,3.492499888E-2,-2.062499896E-2,6.324999966E-3
2.832306132E0,3.121249937E-2,-5.912499968E-3,-1.099999994E-3
2.834813207E0,2.021249942E-2,1.113750041E-2,-1.086249948E-2
2.837321121E0,7.974999957E-3,1.842499897E-2,-1.938750036E-2
2.839828277E0,-4.262499977E-3,1.608750038E-2,-2.543750033E-2
2.842334431E0,-1.154999994E-2,3.849999979E-3,-2.667500079E-2
2.844841409E0,-1.883750036E-2,-5.912499968E-3,-2.062499896E-2
2.847349409E0,-2.626249939E-2,-2.337499987E-3,-7.149999961E-3
2.849856257E0,-2.749999985E-2,3.849999979E-3,1.361249946E-2
2.852362642E0,-1.883750036E-2,9.899999946E-3,2.337500080E-2
2.854869717E0,-5.499999970E-3,7.424999960E-3,3.066249937E-2
2.857377486E0,9.212499484E-3,-4.674999975E-3,2.708750032E-2
2.859884565E0,2.021249942E-2,-2.309999987E-2,1.966249943E-2
2.862390950E0,2.516249940E-2,-2.667500079E-2,8.662499487E-3
2.864898011E0,2.873750031E-2,-1.567500085E-2,-1.099999994E-3
2.867405780E0,2.144999988E-2,1.374999993E-4,-5.912499968E-3
2.869912859E0,7.974999957E-3,1.718750037E-2,-1.443750039E-2
2.872419013E0,-6.599999964E-3,2.461249940E-2,-2.062499896E-2
2.874926088E0,-1.759999990E-2,1.966249943E-2,-2.667500079E-2
2.877434011E0,-2.378750034E-2,1.374999993E-3,-2.543750033E-2
2.879941080E0,-2.859999985E-2,-4.674999975E-3,-1.443750039E-2
2.882447233E0,-2.983750030E-2,-2.337499987E-3,-2.337499987E-3
2.884954308E0,-2.131249942E-2,7.424999960E-3,1.361249946E-2
2.887462093E0,-6.599999964E-3,1.113750041E-2,2.584999986E-2
2.889969172E0,7.974999957E-3,2.612499986E-3,2.942499891E-2
2.892475556E0,2.268750034E-2,-1.333750039E-2,2.461249940E-2
2.894982631E0,3.244999796E-2,-3.162499890E-2,1.608750038E-2
2.897490400E0,3.492499888E-2,-3.038750030E-2,8.662499487E-3
2.899997479E0,2.873750031E-2,-1.333750039E-2,-1.099999994E-3
2.902503633E0,2.144999988E-2,9.899999946E-3,-7.149999961E-3
2.905010708E0,7.974999957E-3,2.089999989E-2,-1.567500085E-2
2.907518631E0,-4.262499977E-3,2.213750035E-2,-2.309999987E-2
2.910025710E0,-1.883750036E-2,9.899999946E-3,-2.667500079E-2
2.912531864E0,-2.859999985E-2,-1.099999994E-3,-2.419999987E-2
2.915038963E0,-3.478749841E-2,-5.912499968E-3,-1.086249948E-2
2.917546732E0,-3.478749841E-2,2.612499986E-3,5.087499972E-3
2.920053811E0,-2.502499893E-2,1.237499993E-2,2.337500080E-2
2.922560196E0,-9.074999951E-3,1.237499993E-2,2.942499891E-2
2.925067280E0,7.974999957E-3,-2.337499987E-3,2.942499891E-2
2.927575049E0,2.268750034E-2,-2.309999987E-2,2.461249940E-2
2.930082113E0,3.368749842E-2,-3.162499890E-2,1.237499993E-2
2.932588497E0,3.602499887E-2,-2.667500079E-2,3.849999979E-3
2.935095341E0,3.121249937E-2,-4.674999975E-3,-5.912499968E-3
2.937603331E0,1.897500083E-2,1.732499897E-2,-1.209999993E-2
2.940110333E0,3.024999984E-3,2.584999986E-2,-2.186249942E-2
2.942616564E0,-9.074999951E-3,1.842499897E-2,-2.914999984E-2
2.945123634E0,-2.007500082E-2,2.612499986E-3,-2.791249938E-2
2.947631557E0,-2.983750030E-2,-4.674999975E-3,-2.186249942E-2
2.950138636E0,-3.478749841E-2,1.374999993E-4,-4.674999975E-3
2.952644814E0,-2.983750030E-2,9.899999946E-3,1.237499993E-2
2.955151889E0,-2.007500082E-2,1.484999992E-2,2.584999986E-2
2.957659658E0,-3.024999984E-3,7.424999960E-3,2.832499892E-2
2.960166737E0,1.168750040E-2,-9.624999948E-3,2.337500080E-2
2.962673132E0,2.392499894E-2,-2.543750033E-2,1.856249943E-2
2.965179976E0,3.244999796E-2,-2.791249938E-2,7.562499959E-3
2.967687985E0,3.121249937E-2,-1.333750039E-2,1.374999993E-3
2.970194987E0,2.626249939E-2,2.612499986E-3,-7.149999961E-3
2.972701218E0,1.292499993E-2,1.732499897E-2,-1.319999993E-2
2.975208293E0,-5.499999970E-4,2.089999989E-2,-2.186249942E-2
2.977716216E0,-1.154999994E-2,1.237499993E-2,-2.667500079E-2
2.980223295E0,-1.649999991E-2,-2.337499987E-3,-2.419999987E-2
2.982729525E0,-2.502499893E-2,-7.149999961E-3,-1.319999993E-2
2.985236523E0,-2.749999985E-2,1.374999993E-3,2.612499986E-3
2.987744523E0,-2.007500082E-2,7.424999960E-3,1.966249943E-2
2.990251372E0,-6.737499963E-3,9.899999946E-3,2.708750032E-2
2.992757771E0,9.212499484E-3,2.612499986E-3,2.832499892E-2
2.995264846E0,1.773750037E-2,-1.443750039E-2,2.213750035E-2
2.997772615E0,2.502499893E-2,-2.914999984E-2,1.608750038E-2
3.000279694E0,2.749999985E-2,-2.433750033E-2,6.324999966E-3
3.002785843E0,2.502499893E-2,-7.149999961E-3,-2.337499987E-3
3.005292918E0,1.402499992E-2,1.237499993E-2,-7.149999961E-3
3.007800841E0,6.874999963E-4,2.584999986E-2,-1.814999990E-2
3.010307934E0,-1.154999994E-2,2.337500080E-2,-2.667500079E-2
3.012814165E0,-2.007500082E-2,8.662499487E-3,-2.791249938E-2
3.015321240E0,-2.749999985E-2,-7.149999961E-3,-2.186249942E-2
3.017829168E0,-3.107500076E-2,-7.149999961E-3,-8.387500420E-3
3.020336247E0,-2.873750031E-2,2.612499986E-3,8.662499487E-3
3.022842401E0,-1.526249945E-2,1.113750041E-2,2.337500080E-2
3.025349490E0,1.924999990E-3,9.899999946E-3,2.832499892E-2
3.027857259E0,1.773750037E-2,-5.912499968E-3,2.832499892E-2
3.030364338E0,2.749999985E-2,-2.791249938E-2,2.089999989E-2
3.032870478E0,3.244999796E-2,-3.643750027E-2,1.113750041E-2
3.035377553E0,3.244999796E-2,-2.186249942E-2,2.612499986E-3
3.037885476E0,2.502499893E-2,1.374999993E-3,-4.674999975E-3
3.040392555E0,1.292499993E-2,2.213750035E-2,-1.319999993E-2
3.042898785E0,-1.787499990E-3,2.584999986E-2,-2.419999987E-2
3.045405860E0,-1.154999994E-2,1.608750038E-2,-2.914999984E-2
3.047913783E0,-2.254999988E-2,-2.337499987E-3,-2.914999984E-2
3.050420862E0,-3.355000168E-2,-7.149999961E-3,-1.691249944E-2
3.052927016E0,-3.602499887E-2,1.374999993E-4,1.374999993E-3
3.055434091E0,-2.873750031E-2,1.113750041E-2,1.966249943E-2
3.057942091E0,-1.402499992E-2,1.484999992E-2,3.313750029E-2
3.060448929E0,4.262499977E-3,6.324999966E-3,3.066249937E-2
3.062955314E0,1.897500083E-2,-1.443750039E-2,2.461249940E-2
3.065462389E0,2.997500077E-2,-3.533750027E-2,1.608750038E-2
3.067970158E0,3.602499887E-2,-3.162499890E-2,5.087499972E-3
3.070477237E0,3.602499887E-2,-1.443750039E-2,-3.437499981E-3
3.072983391E0,2.502499893E-2,8.662499487E-3,-1.086249948E-2
3.075490437E0,1.044999994E-2,2.213750035E-2,-1.691249944E-2
3.077998360E0,-6.737499963E-3,2.461249940E-2,-2.419999987E-2
3.080505439E0,-2.007500082E-2,9.899999946E-3,-2.791249938E-2
3.083011670E0,-2.983750030E-2,-1.099999994E-3,-2.186249942E-2
3.085518644E0,-3.602499887E-2,-2.337499987E-3,-1.209999993E-2
3.088026644E0,-3.355000168E-2,3.849999979E-3,3.849999979E-3
3.090533492E0,-2.378750034E-2,1.361249946E-2,1.732499897E-2
3.093039892E0,-6.737499963E-3,1.237499993E-2,2.337500080E-2
3.095546967E0,9.212499484E-3,-1.099999994E-3,2.461249940E-2
3.098054736E0,2.144999988E-2,-2.062499896E-2,2.089999989E-2
3.100561824E0,3.121249937E-2,-3.038750030E-2,1.484999992E-2
3.103067978E0,3.368749842E-2,-2.186249942E-2,6.324999966E-3
3.105575284E0,2.873750031E-2,-4.674999975E-3,-1.099999994E-3
3.108082967E0,1.773750037E-2,1.361249946E-2,-9.624999948E-3
3.110590046E0,6.737499963E-3,2.089999989E-2,-1.691249944E-2
3.113096277E0,-6.737499963E-3,1.842499897E-2,-2.309999987E-2
3.115603270E0,-1.649999991E-2,3.849999979E-3,-2.667500079E-2
3.118111270E0,-2.502499893E-2,-5.912499968E-3,-1.938750036E-2
3.120618118E0,-2.873750031E-2,-4.674999975E-3,-4.674999975E-3
3.123124503E0,-2.749999985E-2,5.087499972E-3,1.361249946E-2
3.125631578E0,-1.773750037E-2,1.237499993E-2,2.461249940E-2
3.128139347E0,6.874999963E-4,8.662499487E-3,2.708750032E-2
3.130646426E0,1.168750040E-2,-8.387500420E-3,2.584999986E-2
3.133152810E0,2.144999988E-2,-2.667500079E-2,1.856249943E-2
3.135659885E0,2.749999985E-2,-3.038750030E-2,9.899999946E-3
3.138167655E0,2.626249939E-2,-1.567500085E-2,1.374999993E-4
3.140674734E0,2.021249942E-2,7.424999960E-3,-7.149999961E-3
3.143180887E0,7.974999957E-3,2.337500080E-2,-1.691249944E-2
3.145687962E0,-4.262499977E-3,2.584999986E-2,-2.543750033E-2
3.148195871E0,-1.526249945E-2,1.237499993E-2,-2.791249938E-2
3.150702950E0,-2.378750034E-2,-1.099999994E-3,-2.667500079E-2
3.153209181E0,-2.983750030E-2,-4.674999975E-3,-1.567500085E-2
3.155716179E0,-3.107500076E-2,1.374999993E-3,2.612499986E-3
3.158224179E0,-2.131249942E-2,7.424999960E-3,1.966249943E-2
3.160731027E0,-5.499999970E-3,9.899999946E-3,2.832499892E-2
3.163237412E0,7.974999957E-3,2.612499986E-3,2.942499891E-2
3.165744477E0,2.144999988E-2,-1.814999990E-2,2.461249940E-2
3.168252246E0,2.997500077E-2,-3.162499890E-2,1.361249946E-2
3.170759325E0,3.368749842E-2,-2.667500079E-2,5.087499972E-3
3.173265479E0,2.997500077E-2,-7.149999961E-3,-4.674999975E-3
3.175772549E0,1.773750037E-2,9.899999946E-3,-1.086249948E-2
3.178280472E0,6.874999963E-4,2.213750035E-2,-1.814999990E-2
3.180787551E0,-1.402499992E-2,1.966249943E-2,-2.543750033E-2
3.183293763E0,-2.131249942E-2,8.662499487E-3,-2.543750033E-2
3.185800838E0,-2.983750030E-2,-1.099999994E-3,-1.938750036E-2
3.188308761E0,-3.355000168E-2,-3.437499981E-3,-5.912499968E-3
3.190815854E0,-3.231250122E-2,3.849999979E-3,8.662499487E-3
3.193322007E0,-1.649999991E-2,6.324999966E-3,2.089999989E-2
3.195829082E0,6.874999963E-4,6.324999966E-3,2.832499892E-2
3.198336857E0,1.526249945E-2,-5.912499968E-3,2.461249940E-2
3.200843935E0,2.873750031E-2,-2.433750033E-2,2.089999989E-2
3.203350320E0,3.726249933E-2,-3.286249936E-2,1.237499993E-2
3.205857395E0,3.973750025E-2,-2.433750033E-2,3.849999979E-3
3.208365164E0,3.121249937E-2,-2.337499987E-3,-5.912499968E-3
3.210872243E0,1.526249945E-2,1.966249943E-2,-1.319999993E-2
3.213378397E0,-5.499999970E-4,2.337500080E-2,-2.309999987E-2
3.215885472E0,-1.526249945E-2,1.608750038E-2,-2.914999984E-2
3.218393395E0,-2.502499893E-2,3.849999979E-3,-2.791249938E-2
3.220900474E0,-3.602499887E-2,-3.437499981E-3,-2.062499896E-2
3.223406657E0,-3.726249933E-2,1.374999993E-4,-4.674999975E-3
3.225913732E0,-3.231250122E-2,8.662499487E-3,1.484999992E-2
3.228421501E0,-1.773750037E-2,1.484999992E-2,2.461249940E-2
3.230928561E0,6.874999963E-4,7.424999960E-3,2.942499891E-2
3.233434946E0,1.526249945E-2,-1.086249948E-2,2.461249940E-2
3.235942020E0,2.502499893E-2,-3.038750030E-2,2.089999989E-2
3.238449790E0,3.244999796E-2,-3.409999982E-2,9.899999946E-3
3.240956883E0,3.368749842E-2,-1.443750039E-2,1.374999993E-3
3.243463037E0,2.502499893E-2,9.899999946E-3,-7.149999961E-3
3.245970111E0,1.168750040E-2,2.337500080E-2,-1.938750036E-2
3.248478049E0,6.874999963E-4,1.842499897E-2,-2.667500079E-2
3.250985127E0,-7.837500423E-3,3.849999979E-3,-3.038750030E-2
3.253491281E0,-2.007500082E-2,-1.086249948E-2,-2.309999987E-2
3.255998346E0,-2.502499893E-2,-8.387500420E-3,-8.387500420E-3
3.258506346E0,-2.873750031E-2,2.612499986E-3,7.562499959E-3
3.261013425E0,-1.883750036E-2,1.361249946E-2,2.461249940E-2
3.263519569E0,-6.737499963E-3,1.361249946E-2,3.066249937E-2
3.266026644E0,5.499999970E-3,1.374999993E-3,2.942499891E-2
3.268534413E0,1.649999991E-2,-2.186249942E-2,2.089999989E-2
3.271041521E0,2.392499894E-2,-3.409999982E-2,1.237499993E-2
3.273547906E0,2.626249939E-2,-2.062499896E-2,1.374999993E-3
3.276054750E0,2.144999988E-2,1.374999993E-3,-8.387500420E-3
3.278562755E0,1.044999994E-2,2.337500080E-2,-1.209999993E-2
3.281069757E0,-4.262499977E-3,2.942499891E-2,-2.062499896E-2
3.283575988E0,-1.649999991E-2,2.213750035E-2,-2.543750033E-2
3.286083063E0,-2.378750034E-2,1.374999993E-4,-2.914999984E-2
3.288590986E0,-2.873750031E-2,-9.624999948E-3,-1.814999990E-2
3.291098065E0,-2.983750030E-2,-4.674999975E-3,-3.437499981E-3
3.293604218E0,-2.254999988E-2,7.424999960E-3,1.361249946E-2
3.296111293E0,-6.737499963E-3,1.361249946E-2,2.584999986E-2
3.298619063E0,7.974999957E-3,5.087499972E-3,2.942499891E-2
3.301126142E0,2.144999988E-2,-1.209999993E-2,2.584999986E-2
3.303632526E0,2.997500077E-2,-3.533750027E-2,1.856249943E-2
3.306139370E0,3.478749841E-2,-3.533750027E-2,9.899999946E-3
3.308647375E0,2.997500077E-2,-1.443750039E-2,2.612499986E-3
3.311154377E0,2.268750034E-2,1.113750041E-2,-7.149999961E-3
3.313660608E0,7.974999957E-3,2.461249940E-2,-1.567500085E-2
3.316167702E0,-6.737499963E-3,2.584999986E-2,-2.419999987E-2
3.318675625E0,-1.883750036E-2,1.237499993E-2,-2.791249938E-2
3.321182704E0,-2.983750030E-2,-2.337499987E-3,-2.667500079E-2
3.323688848E0,-3.602499887E-2,-8.387500420E-3,-1.567500085E-2
3.326196000E0,-3.478749841E-2,1.374999993E-3,3.849999979E-3
3.328703923E0,-2.626249939E-2,1.484999992E-2,1.966249943E-2
3.331211016E0,-1.031249948E-2,1.608750038E-2,3.189999983E-2
3.333717170E0,6.737499963E-3,3.849999979E-3,3.189999983E-2
3.336224245E0,2.021249942E-2,-2.543750033E-2,2.337500080E-2
3.338732014E0,3.368749842E-2,-4.015000165E-2,1.608750038E-2
3.341239093E0,3.726249933E-2,-2.667500079E-2,3.849999979E-3
3.343745477E0,3.478749841E-2,-2.337499987E-3,-3.437499981E-3
3.346252342E0,2.144999988E-2,1.608750038E-2,-1.319999993E-2
3.348760265E0,5.499999970E-3,2.461249940E-2,-1.938750036E-2
3.351267344E0,-7.837500423E-3,1.732499897E-2,-2.667500079E-2
3.353773559E0,-1.883750036E-2,1.374999993E-3,-2.914999984E-2
3.356280634E0,-2.873750031E-2,-5.912499968E-3,-2.186249942E-2
3.358788557E0,-3.478749841E-2,1.374999993E-3,-5.912499968E-3
3.361295636E0,-3.231250122E-2,1.237499993E-2,1.237499993E-2
3.363801800E0,-2.254999988E-2,1.361249946E-2,2.461249940E-2
3.366308875E0,-7.837500423E-3,8.662499487E-3,3.066249937E-2
3.368816620E0,6.737499963E-3,-1.086249948E-2,2.708750032E-2
3.371323699E0,2.021249942E-2,-2.791249938E-2,1.856249943E-2
3.373830084E0,3.121249937E-2,-2.791249938E-2,1.113750041E-2
3.376336928E0,3.244999796E-2,-1.086249948E-2,-1.099999994E-3
3.378844928E0,2.626249939E-2,2.612499986E-3,-8.387500420E-3
3.381351930E0,1.292499993E-2,1.608750038E-2,-1.567500085E-2
3.383858161E0,-5.499999970E-4,2.089999989E-2,-2.309999987E-2
3.386365236E0,-1.278750040E-2,1.113750041E-2,-2.543750033E-2
3.388873159E0,-1.883750036E-2,1.374999993E-4,-2.419999987E-2
3.391380238E0,-2.502499893E-2,-4.674999975E-3,-1.086249948E-2
3.393886468E0,-2.749999985E-2,3.849999979E-3,2.612499986E-3
3.396393548E0,-2.254999988E-2,8.662499487E-3,1.966249943E-2
3.398901471E0,-1.154999994E-2,8.662499487E-3,2.708750032E-2
3.401408550E0,4.262499977E-3,-1.099999994E-3,2.942499891E-2
3.403914704E0,1.649999991E-2,-1.814999990E-2,2.337500080E-2
3.406421793E0,2.626249939E-2,-2.667500079E-2,1.608750038E-2
3.408929562E0,3.244999796E-2,-2.309999987E-2,8.662499487E-3
3.411436641E0,2.749999985E-2,-5.912499968E-3,-2.337499987E-3
3.413942795E0,1.526249945E-2,9.899999946E-3,-1.086249948E-2
3.416449870E0,1.924999990E-3,2.213750035E-2,-1.814999990E-2
3.418957793E0,-1.031249948E-2,2.213750035E-2,-2.419999987E-2
3.421464872E0,-2.007500082E-2,1.113750041E-2,-2.791249938E-2
3.423971098E0,-2.626249939E-2,-1.099999994E-3,-2.419999987E-2
3.426478173E0,-3.107500076E-2,-3.574999981E-3,-8.387500420E-3
3.428986096E0,-2.749999985E-2,2.612499986E-3,8.662499487E-3
3.431493175E0,-1.759999990E-2,1.113750041E-2,2.213750035E-2
3.433999329E0,-5.499999970E-4,8.662499487E-3,2.832499892E-2
3.436506404E0,1.292499993E-2,-5.912499968E-3,2.708750032E-2
3.439014173E0,2.268750034E-2,-2.543750033E-2,2.213750035E-2
3.441521242E0,2.873750031E-2,-2.914999984E-2,1.237499993E-2
3.444027396E0,3.244999796E-2,-1.814999990E-2,3.849999979E-3
3.446534701E0,2.516249940E-2,2.612499986E-3,-5.912499968E-3
3.449042394E0,1.168750040E-2,1.718750037E-2,-1.567500085E-2
3.451549473E0,-5.499999970E-4,1.966249943E-2,-2.309999987E-2
3.454055703E0,-1.154999994E-2,1.608750038E-2,-2.791249938E-2
3.456562798E0,-2.131249942E-2,3.849999979E-3,-2.667500079E-2
3.459070721E0,-2.983750030E-2,-2.337499987E-3,-1.567500085E-2
3.461577800E0,-3.355000168E-2,-1.099999994E-3,1.374999993E-3
3.464084031E0,-2.859999985E-2,6.324999966E-3,1.966249943E-2
3.466591106E0,-1.526249945E-2,9.899999946E-3,2.832499892E-2
3.469099029E0,6.874999963E-4,1.374999993E-3,3.313750029E-2
3.471605877E0,1.773750037E-2,-1.209999993E-2,2.584999986E-2
3.474112262E0,3.244999796E-2,-2.791249938E-2,1.842499897E-2
3.476619337E0,3.849999979E-2,-2.433750033E-2,6.324999966E-3
3.479127106E0,3.492499888E-2,-1.086249948E-2,-4.674999975E-3
3.481634156E0,2.268750034E-2,3.849999979E-3,-1.086249948E-2
3.484140310E0,6.737499963E-3,1.718750037E-2,-2.062499896E-2
3.486647385E0,-6.599999964E-3,1.966249943E-2,-2.543750033E-2
3.489155322E0,-2.131249942E-2,1.484999992E-2,-2.791249938E-2
3.491662401E0,-2.859999985E-2,3.849999979E-3,-2.309999987E-2
3.494168632E0,-3.355000168E-2,1.374999993E-4,-1.333750039E-2
3.496675687E0,-3.478749841E-2,5.087499972E-3,2.612499986E-3
3.499183611E0,-2.749999985E-2,7.424999960E-3,1.842499897E-2
3.501690690E0,-1.031249948E-2,3.849999979E-3,2.584999986E-2
3.504196833E0,6.737499963E-3,-3.574999981E-3,2.708750032E-2
3.506703908E0,2.392499894E-2,-1.814999990E-2,2.213750035E-2
3.509211678E0,3.244999796E-2,-2.543750033E-2,1.608750038E-2
3.511718737E0,3.726249933E-2,-2.186249942E-2,8.662499487E-3
3.514224891E0,3.121249937E-2,-8.387500420E-3,-3.437499981E-3
3.516731966E0,1.897500083E-2,8.662499487E-3,-9.624999948E-3
3.519239889E0,4.262499977E-3,1.718750037E-2,-1.814999990E-2
3.521747040E0,-5.499999970E-3,1.608750038E-2,-2.543750033E-2
3.524253194E0,-1.649999991E-2,7.424999960E-3,-2.543750033E-2
3.526760269E0,-2.254999988E-2,-2.337499987E-3,-1.938750036E-2
3.529268178E0,-2.749999985E-2,-4.674999975E-3,-5.912499968E-3
3.531775257E0,-2.626249939E-2,2.612499986E-3,9.899999946E-3
3.534281488E0,-1.759999990E-2,7.424999960E-3,2.337500080E-2
3.536788486E0,-4.262499977E-3,6.324999966E-3,2.708750032E-2
3.539296486E0,1.292499993E-2,-7.149999961E-3,2.832499892E-2
3.541803334E0,2.268750034E-2,-2.062499896E-2,1.842499897E-2
3.544309719E0,2.749999985E-2,-2.667500079E-2,9.899999946E-3
3.546816817E0,2.626249939E-2,-1.567500085E-2,1.374999993E-3
3.549324587E0,2.021249942E-2,1.374999993E-3,-9.624999948E-3
3.551831666E0,7.974999957E-3,1.608750038E-2,-1.691249944E-2
3.554337809E0,-3.024999984E-3,2.213750035E-2,-2.543750033E-2
3.556844884E0,-1.278750040E-2,1.608750038E-2,-3.038750030E-2
3.559352807E0,-2.007500082E-2,5.087499972E-3,-2.419999987E-2
3.561859886E0,-2.859999985E-2,-4.674999975E-3,-1.443750039E-2
3.564366117E0,-2.859999985E-2,-2.337499987E-3,2.612499986E-3
3.566873192E0,-2.131249942E-2,2.612499986E-3,1.732499897E-2
3.569381115E0,-7.837500423E-3,5.087499972E-3,2.942499891E-2
3.571887963E0,6.737499963E-3,2.612499986E-3,2.942499891E-2
3.574394348E0,2.268750034E-2,-1.209999993E-2,2.337500080E-2
3.576901423E0,2.997500077E-2,-2.543750033E-2,1.608750038E-2
3.579409192E0,3.244999796E-2,-2.791249938E-2,5.087499972E-3
3.581916266E0,2.749999985E-2,-1.333750039E-2,-4.674999975E-3
3.584422420E0,1.649999991E-2,2.612499986E-3,-1.209999993E-2
3.586929495E0,3.162499983E-3,2.089999989E-2,-1.814999990E-2
3.589437506E0,-9.074999951E-3,2.708750032E-2,-2.309999987E-2
3.591944585E0,-1.883750036E-2,1.608750038E-2,-2.667500079E-2
3.594450739E0,-2.859999985E-2,-1.099999994E-3,-2.062499896E-2
3.596957823E0,-3.602499887E-2,-7.149999961E-3,-7.149999961E-3
3.599465746E0,-3.355000168E-2,-1.099999994E-3,9.899999946E-3
3.601972825E0,-2.007500082E-2,6.324999966E-3,2.337500080E-2
3.604479046E0,-5.499999970E-4,8.662499487E-3,3.066249937E-2
3.606986044E0,1.526249945E-2,1.374999993E-4,3.066249937E-2
3.609494044E0,2.749999985E-2,-1.938750036E-2,1.966249943E-2
3.612000888E0,3.602499887E-2,-3.409999982E-2,1.237499993E-2
3.614507272E0,3.602499887E-2,-2.791249938E-2,1.374999993E-4
3.617014347E0,3.121249937E-2,-5.912499968E-3,-5.912499968E-3
3.619522111E0,1.773750037E-2,1.484999992E-2,-1.443750039E-2
3.622029190E0,1.924999990E-3,2.708750032E-2,-2.062499896E-2
3.624535363E0,-1.154999994E-2,2.089999989E-2,-2.543750033E-2
3.627042438E0,-2.502499893E-2,6.324999966E-3,-2.667500079E-2
3.629550361E0,-3.231250122E-2,-5.912499968E-3,-1.938750036E-2
3.632057440E0,-3.602499887E-2,-1.099999994E-3,-5.912499968E-3
3.634563671E0,-3.107500076E-2,5.087499972E-3,1.237499993E-2
3.637070669E0,-1.649999991E-2,1.361249946E-2,2.461249940E-2
3.639578669E0,6.874999963E-4,6.324999966E-3,2.832499892E-2
3.642085517E0,1.649999991E-2,-8.387500420E-3,2.708750032E-2
3.644591902E0,2.516249940E-2,-2.667500079E-2,1.732499897E-2
3.647098977E0,3.368749842E-2,-2.914999984E-2,1.113750041E-2
3.649606746E0,3.492499888E-2,-1.691249944E-2,-1.099999994E-3
3.652113835E0,2.392499894E-2,3.849999979E-3,-8.387500420E-3
3.654620219E0,1.168750040E-2,2.337500080E-2,-1.691249944E-2
3.657127294E0,-3.024999984E-3,2.337500080E-2,-2.667500079E-2
3.659635005E0,-1.031249948E-2,8.662499487E-3,-2.791249938E-2
3.662142160E0,-2.131249942E-2,-7.149999961E-3,-2.419999987E-2
3.664648314E0,-2.749999985E-2,-5.912499968E-3,-1.086249948E-2
3.667155172E0,-2.859999985E-2,2.612499986E-3,7.562499959E-3
3.669661963E0,-2.254999988E-2,9.899999946E-3,2.337500080E-2
3.672170389E0,-7.837500423E-3,9.899999946E-3,3.066249937E-2
3.674676622E0,6.737499963E-3,1.374999993E-3,2.832499892E-2
3.677183634E0,1.773750037E-2,-1.938750036E-2,2.337500080E-2
3.679691634E0,2.749999985E-2,-3.162499890E-2,1.237499993E-2
3.682198482E0,2.997500077E-2,-2.186249942E-2,2.612499986E-3
3.684704867E0,2.516249940E-2,-4.674999975E-3,-5.912499968E-3
3.687211962E0,1.416249946E-2,1.484999992E-2,-1.443750039E-2
3.689719731E0,-1.787499990E-3,2.584999986E-2,-2.309999987E-2
3.692226810E0,-1.278750040E-2,2.337500080E-2,-2.791249938E-2
3.694732968E0,-2.254999988E-2,5.087499972E-3,-2.667500079E-2
3.697240273E0,-2.859999985E-2,-5.912499968E-3,-1.814999990E-2
3.699747966E0,-3.231250122E-2,-4.674999975E-3,-3.437499981E-3
3.702255050E0,-2.502499893E-2,3.849999979E-3,1.361249946E-2
3.704761280E0,-9.074999951E-3,7.424999960E-3,2.584999986E-2
3.707268278E0,1.044999994E-2,3.849999979E-3,2.942499891E-2
3.709776297E0,2.144999988E-2,-1.209999993E-2,2.584999986E-2
3.712283146E0,2.749999985E-2,-2.791249938E-2,2.089999989E-2
3.714789530E0,3.121249937E-2,-2.791249938E-2,9.899999946E-3
3.717296576E0,2.873750031E-2,-1.567500085E-2,-1.099999994E-3
3.719804345E0,2.144999988E-2,5.087499972E-3,-7.149999961E-3
3.722311424E0,7.974999957E-3,2.089999989E-2,-1.814999990E-2
3.724817805E0,-3.024999984E-3,2.708750032E-2,-2.543750033E-2
3.727324880E0,-1.883750036E-2,1.608750038E-2,-3.038750030E-2
3.729832649E0,-2.626249939E-2,1.374999993E-3,-2.667500079E-2
3.732339728E0,-3.355000168E-2,-7.149999961E-3,-1.333750039E-2
3.734845882E0,-3.478749841E-2,-3.574999981E-3,5.087499972E-3
3.737352957E0,-2.502499893E-2,7.424999960E-3,2.337500080E-2
3.739860880E0,-1.031249948E-2,1.361249946E-2,3.189999983E-2
3.742367959E0,9.212499484E-3,5.087499972E-3,3.313750029E-2
3.744874190E0,2.268750034E-2,-1.938750036E-2,2.461249940E-2
3.747381188E0,2.997500077E-2,-3.409999982E-2,1.732499897E-2
3.749889188E0,3.602499887E-2,-3.286249936E-2,3.849999979E-3
3.752396026E0,3.368749842E-2,-1.086249948E-2,-5.912499968E-3
3.754902410E0,2.144999988E-2,1.484999992E-2,-1.443750039E-2
3.757409485E0,5.499999970E-3,3.066249937E-2,-2.309999987E-2
3.759917255E0,-9.074999951E-3,2.213750035E-2,-2.791249938E-2
3.762424334E0,-2.131249942E-2,5.087499972E-3,-3.038750030E-2
3.764930487E0,-2.983750030E-2,-7.149999961E-3,-2.186249942E-2
3.767437562E0,-3.478749841E-2,-3.574999981E-3,-7.149999961E-3
3.769945490E0,-3.107500076E-2,5.087499972E-3,1.113750041E-2
3.772452569E0,-1.883750036E-2,1.237499993E-2,2.461249940E-2
3.774958800E0,-4.262499977E-3,1.237499993E-2,3.066249937E-2
3.777465798E0,1.044999994E-2,-5.912499968E-3,2.832499892E-2
3.779973798E0,2.268750034E-2,-2.433750033E-2,2.089999989E-2
3.782480862E0,2.997500077E-2,-3.162499890E-2,8.662499487E-3
3.784987016E0,3.121249937E-2,-2.062499896E-2,1.374999993E-3
3.787494091E0,2.749999985E-2,2.612499986E-3,-9.624999948E-3
3.790001865E0,1.526249945E-2,1.842499897E-2,-1.691249944E-2
3.792508944E0,-5.499999970E-4,2.584999986E-2,-2.309999987E-2
3.795015319E0,-1.278750040E-2,1.484999992E-2,-2.667500079E-2
3.797522394E0,-2.007500082E-2,1.374999993E-4,-2.419999987E-2
3.800030163E0,-2.502499893E-2,-9.624999948E-3,-1.333750039E-2
3.802537242E0,-2.983750030E-2,-4.674999975E-3,3.849999979E-3
3.805043396E0,-2.131249942E-2,6.324999966E-3,1.732499897E-2
3.807550470E0,-6.599999964E-3,1.113750041E-2,2.832499892E-2
3.810058394E0,7.974999957E-3,5.087499972E-3,2.942499891E-2
3.812565472E0,1.773750037E-2,-1.457499992E-2,2.337500080E-2
3.815071703E0,2.626249939E-2,-2.914999984E-2,1.608750038E-2
3.817578701E0,2.873750031E-2,-2.791249938E-2,6.324999966E-3
3.820086701E0,2.749999985E-2,-1.086249948E-2,-1.099999994E-3
3.822593540E0,1.526249945E-2,1.237499993E-2,-1.086249948E-2
3.825099925E0,3.162499983E-3,2.818750031E-2,-1.938750036E-2
3.827607000E0,-9.074999951E-3,2.584999986E-2,-2.667500079E-2
3.830114765E0,-2.007500082E-2,1.113750041E-2,-3.038750030E-2
3.832621844E0,-2.749999985E-2,-5.912499968E-3,-2.309999987E-2
3.835127998E0,-3.107500076E-2,-7.149999961E-3,-9.624999948E-3
3.837635054E0,-2.749999985E-2,-2.337499987E-3,7.562499959E-3
3.840142977E0,-1.649999991E-2,1.113750041E-2,2.337500080E-2
3.842650056E0,-5.499999970E-4,1.361249946E-2,3.066249937E-2
3.845156287E0,1.526249945E-2,-4.674999975E-3,3.189999983E-2
3.847663285E0,2.392499894E-2,-2.433750033E-2,2.461249940E-2
3.850171285E0,2.873750031E-2,-3.286249936E-2,1.484999992E-2
3.852678364E0,3.121249937E-2,-2.062499896E-2,1.374999993E-3
3.855184518E0,2.749999985E-2,1.374999993E-4,-7.149999961E-3
3.857691592E0,1.526249945E-2,1.966249943E-2,-1.691249944E-2
3.860199362E0,1.924999990E-3,2.337500080E-2,-2.667500079E-2
3.862706441E0,-1.031249948E-2,1.718750037E-2,-3.038750030E-2
3.865212825E0,-2.007500082E-2,2.612499986E-3,-2.667500079E-2
3.867719900E0,-2.859999985E-2,-8.387500420E-3,-1.443750039E-2
3.870227654E0,-3.107500076E-2,-3.574999981E-3,2.612499986E-3
3.872734656E0,-2.502499893E-2,5.087499972E-3,1.842499897E-2
3.875240902E0,-1.402499992E-2,9.899999946E-3,3.189999983E-2
3.877747977E0,1.924999990E-3,3.849999979E-3,3.313750029E-2
3.880255900E0,1.773750037E-2,-1.086249948E-2,2.942499891E-2
3.882762979E0,2.873750031E-2,-3.162499890E-2,1.732499897E-2
3.885269210E0,3.602499887E-2,-3.038750030E-2,6.324999966E-3
3.887776208E0,3.368749842E-2,-1.457499992E-2,-7.149999961E-3
3.890284208E0,2.268750034E-2,9.899999946E-3,-1.443750039E-2
3.892791056E0,4.262499977E-3,2.461249940E-2,-2.062499896E-2
3.895297441E0,-9.074999951E-3,2.584999986E-2,-2.791249938E-2
3.897804516E0,-2.378750034E-2,1.361249946E-2,-2.543750033E-2
3.900312285E0,-3.231250122E-2,-1.099999994E-3,-2.419999987E-2
3.902819368E0,-3.355000168E-2,-2.337499987E-3,-1.209999993E-2
3.905325522E0,-3.231250122E-2,3.849999979E-3,5.087499972E-3
3.907832597E0,-2.007500082E-2,9.899999946E-3,1.966249943E-2
3.910340520E0,-3.024999984E-3,5.087499972E-3,2.942499891E-2
3.912847599E0,9.212499484E-3,-4.674999975E-3,2.832499892E-2
3.915353829E0,2.268750034E-2,-2.062499896E-2,2.461249940E-2
3.917860817E0,3.244999796E-2,-2.914999984E-2,1.484999992E-2
3.920368817E0,3.973750025E-2,-2.309999987E-2,5.087499972E-3
3.922875896E0,3.244999796E-2,-4.674999975E-3,-5.912499968E-3
3.925382127E0,1.897500083E-2,1.361249946E-2,-1.443750039E-2
3.927889125E0,3.162499983E-3,2.089999989E-2,-2.186249942E-2
3.930396894E0,-9.074999951E-3,1.842499897E-2,-3.038750030E-2
3.932903968E0,-1.773750037E-2,3.849999979E-3,-2.791249938E-2
3.935410353E0,-2.626249939E-2,-4.674999975E-3,-1.938750036E-2
3.937917428E0,-3.107500076E-2,-3.574999981E-3,-4.674999975E-3
3.940425197E0,-2.983750030E-2,5.087499972E-3,1.484999992E-2
3.942932290E0,-1.883750036E-2,9.899999946E-3,2.832499892E-2
3.945438444E0,-3.024999984E-3,6.324999966E-3,3.313750029E-2
3.947945519E0,1.168750040E-2,-8.387500420E-3,2.942499891E-2
3.950453442E0,2.268750034E-2,-2.667500079E-2,2.089999989E-2
3.952960521E0,3.121249937E-2,-2.667500079E-2,9.899999946E-3
3.955466752E0,2.873750031E-2,-1.443750039E-2,-1.099999994E-3
3.957973750E0,2.021249942E-2,6.324999966E-3,-1.086249948E-2
3.960481750E0,7.974999957E-3,2.089999989E-2,-2.062499896E-2
3.962988598E0,-4.262499977E-3,2.584999986E-2,-2.543750033E-2
3.965494978E0,-1.278750040E-2,1.113750041E-2,-3.038750030E-2
3.968002053E0,-2.007500082E-2,-3.574999981E-3,-2.309999987E-2
3.970509822E0,-2.626249939E-2,-8.387500420E-3,-1.209999993E-2
3.973016901E0,-2.502499893E-2,-1.099999994E-3,3.849999979E-3
3.975523055E0,-1.883750036E-2,6.324999966E-3,2.213750035E-2
3.978030130E0,-6.737499963E-3,9.899999946E-3,3.066249937E-2
3.980538053E0,9.212499484E-3,1.374999993E-4,3.066249937E-2
3.983045132E0,2.021249942E-2,-1.814999990E-2,2.461249940E-2
3.985551363E0,2.873750031E-2,-2.791249938E-2,1.484999992E-2
3.988058438E0,2.749999985E-2,-2.309999987E-2,1.374999993E-4
3.990566361E0,2.392499894E-2,-2.337499987E-3,-9.624999948E-3
3.993073440E0,1.402499992E-2,1.361249946E-2,-1.567500085E-2
3.995579671E0,-5.499999970E-4,2.213750035E-2,-2.543750033E-2
3.998086669E0,-1.402499992E-2,1.842499897E-2,-2.667500079E-2
4.000594692E0,-2.378750034E-2,7.424999960E-3,-2.419999987E-2
4.003101540E0,-2.626249939E-2,-2.337499987E-3,-1.691249944E-2
4.005607694E0,-2.983750030E-2,-5.912499968E-3,1.374999993E-4
4.008114999E0,-2.873750031E-2,1.374999993E-3,1.608750038E-2
4.010622769E0,-1.402499992E-2,6.324999966E-3,2.832499892E-2
4.013129848E0,3.162499983E-3,5.087499972E-3,3.189999983E-2
4.015635987E0,1.773750037E-2,-8.387500420E-3,2.832499892E-2
4.018143062E0,2.997500077E-2,-2.543750033E-2,1.966249943E-2
4.020650985E0,3.849999979E-2,-3.162499890E-2,7.562499959E-3
4.023158078E0,3.726249933E-2,-2.186249942E-2,-2.337499987E-3
4.025664309E0,2.626249939E-2,1.374999993E-3,-1.086249948E-2
4.028171307E0,1.044999994E-2,2.089999989E-2,-1.691249944E-2
4.030679317E0,-3.024999984E-3,2.818750031E-2,-2.419999987E-2
4.033186396E0,-1.773750037E-2,1.732499897E-2,-3.038750030E-2
4.035692550E0,-2.749999985E-2,3.849999979E-3,-2.667500079E-2
4.038199625E0,-3.478749841E-2,-2.337499987E-3,-1.567500085E-2
4.040707394E0,-3.355000168E-2,-1.099999994E-3,1.374999993E-3
4.043214473E0,-2.873750031E-2,7.424999960E-3,1.856249943E-2
4.045720627E0,-1.649999991E-2,1.361249946E-2,2.832499892E-2
4.048227702E0,3.162499983E-3,6.324999966E-3,2.942499891E-2
4.050735625E0,1.773750037E-2,-1.567500085E-2,2.584999986E-2
4.053242704E0,2.873750031E-2,-3.038750030E-2,1.732499897E-2
4.055748935E0,3.244999796E-2,-2.543750033E-2,5.087499972E-3
4.058256010E0,3.244999796E-2,-1.086249948E-2,-2.337499987E-3
4.060763933E0,2.268750034E-2,8.662499487E-3,-1.209999993E-2
4.063270997E0,1.044999994E-2,2.337500080E-2,-2.062499896E-2
4.065777227E0,-5.499999970E-4,2.089999989E-2,-2.791249938E-2
4.068284225E0,-1.278750040E-2,6.324999966E-3,-2.667500079E-2
4.070792240E0,-1.883750036E-2,-1.086249948E-2,-1.938750036E-2
4.073299088E0,-2.749999985E-2,-7.149999961E-3,-5.912499968E-3
4.075805242E0,-2.626249939E-2,2.612499986E-3,1.361249946E-2
4.078312568E0,-1.883750036E-2,1.361249946E-2,2.832499892E-2
4.080820337E0,-5.499999970E-3,1.361249946E-2,3.189999983E-2
4.083327416E0,6.737499963E-3,-3.574999981E-3,2.832499892E-2
4.085833556E0,1.773750037E-2,-2.543750033E-2,1.966249943E-2
4.088340631E0,2.749999985E-2,-3.038750030E-2,9.899999946E-3
4.090848554E0,2.997500077E-2,-1.567500085E-2,-1.099999994E-3
4.093355623E0,2.268750034E-2,3.849999979E-3,-8.387500420E-3
4.095861854E0,1.044999994E-2,1.966249943E-2,-1.567500085E-2
4.098368929E0,-4.262499977E-3,2.213750035E-2,-2.419999987E-2
4.100876837E0,-1.649999991E-2,1.732499897E-2,-2.791249938E-2
4.103383685E0,-2.502499893E-2,3.849999979E-3,-2.667500079E-2
4.105890070E0,-2.749999985E-2,-3.574999981E-3,-1.567500085E-2
4.108397144E0,-2.873750031E-2,-2.337499987E-3,-1.099999994E-3
4.110904914E0,-2.254999988E-2,8.662499487E-3,1.608750038E-2
4.113411993E0,-7.837500423E-3,9.899999946E-3,2.708750032E-2
4.115918147E0,7.974999957E-3,-1.099999994E-3,2.832499892E-2
4.118425452E0,2.021249942E-2,-1.691249944E-2,2.584999986E-2
4.120933221E0,2.997500077E-2,-2.914999984E-2,1.484999992E-2
4.123440223E0,3.368749842E-2,-2.186249942E-2,8.662499487E-3
4.125946454E0,2.997500077E-2,-8.387500420E-3,-1.099999994E-3
4.128453529E0,2.021249942E-2,9.899999946E-3,-1.086249948E-2
4.130961452E0,7.974999957E-3,1.842499897E-2,-1.691249944E-2
4.133468536E0,-5.499999970E-3,1.966249943E-2,-2.419999987E-2
4.135974767E0,-1.649999991E-2,7.424999960E-3,-2.791249938E-2
4.138481765E0,-2.626249939E-2,1.374999993E-4,-2.309999987E-2
4.140989755E0,-3.107500076E-2,-1.099999994E-3,-9.624999948E-3
4.143496603E0,-3.107500076E-2,1.374999993E-3,7.562499959E-3
4.146002988E0,-2.378750034E-2,8.662499487E-3,2.461249940E-2
4.148510063E0,-7.837500423E-3,7.424999960E-3,3.313750029E-2
4.151017837E0,1.044999994E-2,-3.574999981E-3,3.066249937E-2
4.153524916E0,2.502499893E-2,-2.186249942E-2,2.337500080E-2
4.156031070E0,3.244999796E-2,-2.667500079E-2,1.237499993E-2
4.158538121E0,3.602499887E-2,-2.186249942E-2,1.374999993E-3
4.161046044E0,3.121249937E-2,-5.912499968E-3,-8.387500420E-3
4.163553123E0,1.773750037E-2,1.237499993E-2,-1.567500085E-2
4.166059353E0,1.924999990E-3,2.337500080E-2,-2.186249942E-2
4.168566423E0,-1.154999994E-2,2.089999989E-2,-2.791249938E-2
4.171074346E0,-2.007500082E-2,6.324999966E-3,-2.419999987E-2
4.173581425E0,-2.983750030E-2,-3.574999981E-3,-1.938750036E-2
4.176087579E0,-3.726249933E-2,-2.337499987E-3,-3.437499981E-3
4.178594654E0,-3.231250122E-2,7.424999960E-3,1.361249946E-2
4.181102423E0,-2.131249942E-2,8.662499487E-3,2.584999986E-2
4.183609502E0,-5.499999970E-3,8.662499487E-3,3.189999983E-2
4.186115887E0,1.044999994E-2,-8.387500420E-3,2.584999986E-2
4.188622962E0,2.626249939E-2,-2.309999987E-2,1.856249943E-2
4.191130727E0,3.368749842E-2,-2.791249938E-2,7.562499959E-3
4.193637806E0,3.368749842E-2,-1.691249944E-2,-2.337499987E-3
4.196143959E0,2.749999985E-2,-1.099999994E-3,-8.387500420E-3
4.198651034E0,1.402499992E-2,1.237499993E-2,-1.691249944E-2
4.201158957E0,-5.499999970E-4,2.089999989E-2,-2.062499896E-2
4.203666036E0,-1.031249948E-2,1.732499897E-2,-2.419999987E-2
4.206172267E0,-1.773750037E-2,5.087499972E-3,-2.186249942E-2
4.208679265E0,-2.873750031E-2,-4.674999975E-3,-9.624999948E-3
4.211187265E0,-3.107500076E-2,-1.099999994E-3,2.612499986E-3
4.213694344E0,-2.378750034E-2,3.849999979E-3,1.856249943E-2
4.216200497E0,-9.074999951E-3,8.662499487E-3,2.708750032E-2
4.218707572E0,7.974999957E-3,1.374999993E-3,2.832499892E-2
4.221215342E0,1.773750037E-2,-1.209999993E-2,2.213750035E-2
4.223722435E0,2.626249939E-2,-2.543750033E-2,1.484999992E-2
4.226228589E0,2.997500077E-2,-2.433750033E-2,5.087499972E-3
4.228735664E0,2.502499893E-2,-9.624999948E-3,-4.674999975E-3
4.231243582E0,1.649999991E-2,6.324999966E-3,-8.387500420E-3
4.233750661E0,5.499999970E-3,2.461249940E-2,-1.814999990E-2
4.236256892E0,-6.737499963E-3,2.337500080E-2,-2.543750033E-2
4.238763947E0,-1.649999991E-2,1.113750041E-2,-2.914999984E-2
4.241271870E0,-2.626249939E-2,-4.674999975E-3,-2.309999987E-2
4.243778949E0,-3.231250122E-2,-5.912499968E-3,-7.149999961E-3
4.246285103E0,-2.983750030E-2,1.374999993E-3,8.662499487E-3
4.248792178E0,-1.773750037E-2,7.424999960E-3,2.337500080E-2
4.251299947E0,-1.787499990E-3,9.899999946E-3,2.942499891E-2
4.253807257E0,1.649999991E-2,-3.574999981E-3,2.584999986E-2
4.256313416E0,2.626249939E-2,-2.062499896E-2,2.089999989E-2
4.258820490E0,3.121249937E-2,-3.038750030E-2,9.899999946E-3
4.261328260E0,3.121249937E-2,-2.186249942E-2,2.612499986E-3
4.263835358E0,2.392499894E-2,-3.574999981E-3,-8.387500420E-3
4.266341742E0,1.044999994E-2,1.732499897E-2,-1.567500085E-2
4.268848586E0,-1.787499990E-3,2.818750031E-2,-2.419999987E-2
4.271356499E0,-1.031249948E-2,1.966249943E-2,-2.914999984E-2
4.273863578E0,-2.007500082E-2,-1.099999994E-3,-2.543750033E-2
4.276369809E0,-2.983750030E-2,-9.624999948E-3,-1.567500085E-2
4.278876884E0,-3.231250122E-2,-3.574999981E-3,3.849999979E-3
4.281384807E0,-2.502499893E-2,5.087499972E-3,1.966249943E-2
4.283891886E0,-1.154999994E-2,1.237499993E-2,3.189999983E-2
4.286398040E0,3.162499983E-3,7.424999960E-3,3.313750029E-2
4.288905115E0,1.897500083E-2,-9.624999948E-3,2.708750032E-2
4.291412884E0,3.121249937E-2,-3.162499890E-2,1.608750038E-2
4.293919963E0,3.492499888E-2,-3.162499890E-2,3.849999979E-3
4.296426348E0,3.121249937E-2,-1.443750039E-2,-4.674999975E-3
4.298933192E0,2.021249942E-2,8.662499487E-3,-1.443750039E-2
4.301441192E0,5.499999970E-3,2.461249940E-2,-2.062499896E-2
4.303948194E0,-1.031249948E-2,2.584999986E-2,-2.309999987E-2
4.306454449E0,-2.254999988E-2,1.237499993E-2,-2.791249938E-2
4.308961524E0,-3.107500076E-2,-1.099999994E-3,-2.062499896E-2
4.311469447E0,-3.478749841E-2,-5.912499968E-3,-1.086249948E-2
4.313976526E0,-3.355000168E-2,1.374999993E-4,6.324999966E-3
4.316482679E0,-1.883750036E-2,9.899999946E-3,1.966249943E-2
4.318989831E0,-1.787499990E-3,9.899999946E-3,2.832499892E-2
4.321497769E0,1.292499993E-2,-1.099999994E-3,2.832499892E-2
4.324004848E0,2.268750034E-2,-2.309999987E-2,1.856249943E-2
4.326511002E0,3.121249937E-2,-3.409999982E-2,1.237499993E-2
4.329018077E0,3.492499888E-2,-2.543750033E-2,2.612499986E-3
4.331525846E0,2.997500077E-2,-5.912499968E-3,-4.674999975E-3
4.334032925E0,1.773750037E-2,1.361249946E-2,-1.086249948E-2
4.336539079E0,3.162499983E-3,2.584999986E-2,-2.062499896E-2
4.339046154E0,-9.074999951E-3,1.842499897E-2,-2.419999987E-2
4.341554154E0,-2.007500082E-2,3.849999979E-3,-2.667500079E-2
4.344061156E0,-2.626249939E-2,-5.912499968E-3,-1.814999990E-2
4.346567387E0,-2.983750030E-2,-7.149999961E-3,-4.674999975E-3
4.349074447E0,-2.873750031E-2,7.424999960E-3,1.484999992E-2
4.351582370E0,-1.649999991E-2,1.237499993E-2,2.708750032E-2
4.354089449E0,-1.787499990E-3,1.113750041E-2,2.942499891E-2
4.356595622E0,1.402499992E-2,-5.912499968E-3,2.584999986E-2
4.359102697E0,2.268750034E-2,-2.791249938E-2,1.732499897E-2
4.361610466E0,2.749999985E-2,-3.162499890E-2,8.662499487E-3
4.364117550E0,2.873750031E-2,-1.691249944E-2,1.374999993E-4
4.366623934E0,2.144999988E-2,3.849999979E-3,-8.387500420E-3
4.369130778E0,1.044999994E-2,2.089999989E-2,-1.567500085E-2
4.371638779E0,-1.787499990E-3,2.584999986E-2,-2.667500079E-2
4.374145781E0,-1.154999994E-2,1.237499993E-2,-2.914999984E-2
4.376652011E0,-2.007500082E-2,-3.574999981E-3,-2.667500079E-2
4.379159086E0,-2.873750031E-2,-9.624999948E-3,-1.333750039E-2
4.381666999E0,-2.873750031E-2,1.374999993E-3,2.612499986E-3
4.384174078E0,-2.378750034E-2,9.899999946E-3,1.966249943E-2
4.386680309E0,-9.074999951E-3,1.237499993E-2,2.942499891E-2
4.389187384E0,5.499999970E-3,2.612499986E-3,2.708750032E-2
4.391695307E0,1.773750037E-2,-1.814999990E-2,2.461249940E-2
4.394202386E0,2.749999985E-2,-3.162499890E-2,1.237499993E-2
4.396708540E0,3.121249937E-2,-2.667500079E-2,2.612499986E-3
4.399215615E0,2.626249939E-2,-5.912499968E-3,-5.912499968E-3
4.401723384E0,1.773750037E-2,1.361249946E-2,-1.333750039E-2
4.404230463E0,4.262499977E-3,2.461249940E-2,-1.691249944E-2
4.406736848E0,-7.837500423E-3,1.842499897E-2,-2.543750033E-2
4.409243697E0,-2.007500082E-2,8.662499487E-3,-2.543750033E-2
4.411751620E0,-2.749999985E-2,-3.574999981E-3,-1.691249944E-2
4.414258699E0,-3.107500076E-2,-5.912499968E-3,-2.337499987E-3
4.416764929E0,-2.873750031E-2,3.849999979E-3,1.237499993E-2
4.419272004E0,-1.526249945E-2,1.113750041E-2,2.337500080E-2
4.421779927E0,1.787499990E-3,6.324999966E-3,3.066249937E-2
4.424287016E0,1.402499992E-2,-7.149999961E-3,2.584999986E-2
4.426793170E0,2.626249939E-2,-2.309999987E-2,1.856249943E-2
4.429300245E0,3.726249933E-2,-3.286249936E-2,8.799999952E-3
4.431808004E0,3.726249933E-2,-2.309999987E-2,1.374999993E-4
4.434315083E0,3.231250122E-2,-3.437499981E-3,-8.387500420E-3
4.436821468E0,1.526249945E-2,1.856249943E-2,-1.567500085E-2
4.439328548E0,-1.787499990E-3,2.584999986E-2,-2.062499896E-2
4.441836317E0,-1.773750037E-2,1.856249943E-2,-2.667500079E-2
4.444343396E0,-2.873750031E-2,5.087499972E-3,-2.543750033E-2
4.446849536E0,-3.602499887E-2,-4.674999975E-3,-1.814999990E-2
4.449356611E0,-3.726249933E-2,1.374999993E-4,-1.099999994E-3
4.451864611E0,-3.244999796E-2,9.899999946E-3,1.484999992E-2
4.454371598E0,-1.897500083E-2,1.608750038E-2,2.337500080E-2
4.456877829E0,-1.787499990E-3,7.562499959E-3,2.708750032E-2
4.459384827E0,1.402499992E-2,-1.209999993E-2,2.337500080E-2
4.461892827E0,2.502499893E-2,-3.038750030E-2,1.732499897E-2
4.464399906E0,3.355000168E-2,-3.162499890E-2,9.899999946E-3
4.466906059E0,3.602499887E-2,-1.319999993E-2,1.374999993E-4
4.469413134E0,2.749999985E-2,6.324999966E-3,-7.149999961E-3
4.471920904E0,1.402499992E-2,2.213750035E-2,-1.691249944E-2
4.474427983E0,-6.874999963E-4,1.966249943E-2,-2.419999987E-2
4.476934367E0,-9.212499484E-3,3.849999979E-3,-2.667500079E-2
4.479441423E0,-2.021249942E-2,-1.209999993E-2,-2.186249942E-2
4.481949192E0,-2.749999985E-2,-9.624999948E-3,-8.387500420E-3
4.484456271E0,-2.997500077E-2,3.849999979E-3,7.562499959E-3
4.486962425E0,-2.144999988E-2,1.361249946E-2,2.337500080E-2
4.489469490E0,-9.212499484E-3,1.237499993E-2,2.832499892E-2
4.491977413E0,4.262499977E-3,1.374999993E-4,2.708750032E-2
4.494484492E0,1.649999991E-2,-1.938750036E-2,1.979999989E-2
4.496990723E0,2.131249942E-2,-3.038750030E-2,1.113750041E-2
4.499497721E0,2.626249939E-2,-1.814999990E-2,1.374999993E-3
4.502005490E0,2.131249942E-2,1.374999993E-4,-7.149999961E-3
4.504512574E0,1.154999994E-2,1.856249943E-2,-1.196249947E-2
4.507018959E0,-1.787499990E-3,2.089999989E-2,-1.938750036E-2
4.509526034E0,-1.278750040E-2,1.856249943E-2,-2.419999987E-2
4.512033803E0,-2.021249942E-2,3.849999979E-3,-2.419999987E-2
4.514540892E0,-2.502499893E-2,-7.149999961E-3,-1.814999990E-2
4.517047046E0,-2.873750031E-2,-7.149999961E-3,-1.099999994E-3
4.519554331E0,-2.254999988E-2,5.087499972E-3,1.113750041E-2
4.522062100E0,-9.212499484E-3,8.662499487E-3,2.337500080E-2
4.524569179E0,5.499999970E-3,5.087499972E-3,2.708750032E-2
4.527075329E0,1.897500083E-2,-1.209999993E-2,2.337500080E-2
4.529582404E0,2.997500077E-2,-3.038750030E-2,1.979999989E-2
4.532090327E0,3.602499887E-2,-3.038750030E-2,1.113750041E-2
4.534597406E0,3.231250122E-2,-1.443750039E-2,1.374999993E-3
4.537103637E0,2.131249942E-2,9.899999946E-3,-7.149999961E-3
4.539610635E0,5.499999970E-3,1.966249943E-2,-1.567500085E-2
4.542118635E0,-6.737499963E-3,2.337500080E-2,-2.296249941E-2
4.544625483E0,-1.773750037E-2,1.113750041E-2,-2.914999984E-2
4.547131868E0,-2.749999985E-2,-1.099999994E-3,-2.543750033E-2
4.549638943E0,-3.244999796E-2,-3.437499981E-3,-1.567500085E-2
4.552146712E0,-3.355000168E-2,1.374999993E-4,2.612499986E-3
4.554653776E0,-2.502499893E-2,7.562499959E-3,1.979999989E-2
4.557159930E0,-9.212499484E-3,9.899999946E-3,3.066249937E-2
4.559667005E0,4.262499977E-3,5.087499972E-3,3.189999983E-2
4.562174943E0,2.131249942E-2,-1.814999990E-2,2.337500080E-2
4.564682022E0,3.355000168E-2,-3.286249936E-2,1.484999992E-2
4.567188252E0,3.973750025E-2,-3.038750030E-2,5.087499972E-3
4.569695250E0,3.478749841E-2,-9.624999948E-3,-3.437499981E-3
4.572203245E0,2.131249942E-2,1.113750041E-2,-1.196249947E-2
4.574710324E0,5.499999970E-3,2.337500080E-2,-1.938750036E-2
4.577216487E0,-9.212499484E-3,2.213750035E-2,-2.543750033E-2
4.579723562E0,-2.021249942E-2,6.324999966E-3,-2.914999984E-2
4.582231331E0,-2.749999985E-2,-4.674999975E-3,-2.296249941E-2
4.584738415E0,-3.602499887E-2,-1.099999994E-3,-9.624999948E-3
4.587244569E0,-3.355000168E-2,7.562499959E-3,7.562499959E-3
4.589751875E0,-2.378750034E-2,1.237499993E-2,2.213750035E-2
4.592259644E0,-7.974999957E-3,9.899999946E-3,2.956249937E-2
4.594766723E0,7.974999957E-3,-4.674999975E-3,2.832499892E-2
4.597272877E0,2.131249942E-2,-2.186249942E-2,1.979999989E-2
4.599779952E0,3.107500076E-2,-3.038750030E-2,1.113750041E-2
4.602287880E0,3.355000168E-2,-1.814999990E-2,2.612499986E-3
4.604794959E0,2.749999985E-2,1.374999993E-4,-7.149999961E-3
4.607301209E0,1.402499992E-2,1.237499993E-2,-1.196249947E-2
4.609808284E0,1.787499990E-3,2.213750035E-2,-2.186249942E-2
4.612316207E0,-9.212499484E-3,1.484999992E-2,-2.296249941E-2
4.614823055E0,-1.773750037E-2,3.849999979E-3,-2.419999987E-2
4.617329439E0,-2.502499893E-2,-5.912499968E-3,-1.443750039E-2
4.619836514E0,-2.749999985E-2,-2.199999988E-3,-1.099999994E-3
4.622344284E0,-2.378750034E-2,2.612499986E-3,1.361249946E-2
4.624851362E0,-1.168750040E-2,1.113750041E-2,2.584999986E-2
4.627357516E0,3.024999984E-3,3.849999979E-3,2.956249937E-2
4.629864591E0,1.402499992E-2,-1.209999993E-2,2.584999986E-2
4.632372514E0,2.502499893E-2,-2.419999987E-2,1.732499897E-2
4.634879593E0,3.107500076E-2,-2.543750033E-2,7.562499959E-3
4.637385824E0,2.749999985E-2,-1.086249948E-2,1.374999993E-4
4.639892899E0,1.773750037E-2,6.324999966E-3,-8.387500420E-3
4.642400836E0,6.737499963E-3,2.213750035E-2,-1.443750039E-2
4.644907915E0,-5.499999970E-3,2.337500080E-2,-2.296249941E-2
4.647414069E0,-1.278750040E-2,1.484999992E-2,-2.914999984E-2
4.649921217E0,-2.378750034E-2,-2.199999988E-3,-2.543750033E-2
4.652429140E0,-2.997500077E-2,-8.387500420E-3,-1.443750039E-2
4.654936209E0,-2.749999985E-2,-5.912499968E-3,5.087499972E-3
4.657442363E0,-2.021249942E-2,7.562499959E-3,2.089999989E-2
4.659949437E0,-5.499999970E-3,1.484999992E-2,2.956249937E-2
4.662457207E0,1.154999994E-2,1.374999993E-3,2.708750032E-2
4.664964286E0,2.502499893E-2,-2.062499896E-2,2.089999989E-2
4.667470899E0,2.997500077E-2,-3.396249935E-2,1.361249946E-2
4.669977654E0,3.231250122E-2,-2.667500079E-2,3.849999979E-3
4.672485438E0,2.502499893E-2,-4.674999975E-3,-4.674999975E-3
4.674992525E0,1.278750040E-2,1.856249943E-2,-1.319999993E-2
4.677498756E0,-6.874999963E-4,2.584999986E-2,-1.814999990E-2
4.680005831E0,-1.402499992E-2,1.966249943E-2,-2.543750033E-2
4.682513740E0,-2.254999988E-2,3.849999979E-3,-2.667500079E-2
4.685020819E0,-2.749999985E-2,-8.387500420E-3,-1.814999990E-2
4.687526973E0,-3.244999796E-2,-7.149999961E-3,-4.674999975E-3
4.690034053E0,-2.749999985E-2,5.087499972E-3,1.484999992E-2
4.692541822E0,-1.402499992E-2,1.113750041E-2,2.832499892E-2
4.695048901E0,5.499999970E-4,7.562499959E-3,3.313750029E-2
4.697555300E0,1.402499992E-2,-5.912499968E-3,2.708750032E-2
4.700062144E0,2.749999985E-2,-2.914999984E-2,1.856249943E-2
4.702570144E0,3.726249933E-2,-3.286249936E-2,7.562499959E-3
4.705077146E0,3.355000168E-2,-1.691249944E-2,-3.437499981E-3
4.707583377E0,2.502499893E-2,5.087499972E-3,-8.387500420E-3
4.710090452E0,1.031249948E-2,2.337500080E-2,-1.691249944E-2
4.712598375E0,-4.262499977E-3,2.337500080E-2,-2.296249941E-2
4.715105440E0,-1.773750037E-2,1.608750038E-2,-2.791249938E-2
4.717611670E0,-2.997500077E-2,-1.099999994E-3,-2.791249938E-2
4.720118668E0,-3.355000168E-2,-5.912499968E-3,-1.443750039E-2
4.722626698E0,-3.602499887E-2,1.374999993E-3,1.374999993E-3
4.725133777E0,-2.997500077E-2,1.608750038E-2,1.979999989E-2
4.727639931E0,-1.168750040E-2,1.484999992E-2,2.708750032E-2
4.730147006E0,4.262499977E-3,2.612499986E-3,2.832499892E-2
4.732654775E0,2.131249942E-2,-2.062499896E-2,2.213750035E-2
4.735161854E0,3.107500076E-2,-3.286249936E-2,1.361249946E-2
4.737668239E0,3.726249933E-2,-2.914999984E-2,6.324999966E-3
4.740175083E0,3.355000168E-2,-9.624999948E-3,-3.437499981E-3
4.742683083E0,2.254999988E-2,8.662499487E-3,-8.387500420E-3
4.745190085E0,1.031249948E-2,2.213750035E-2,-1.567500085E-2
4.747696316E0,-3.024999984E-3,2.089999989E-2,-2.186249942E-2
4.750203391E0,-1.526249945E-2,5.087499972E-3,-2.543750033E-2
4.752711309E0,-2.378750034E-2,-5.912499968E-3,-2.186249942E-2
4.755218388E0,-2.997500077E-2,-5.912499968E-3,-7.149999961E-3
4.757724542E0,-2.873750031E-2,5.087499972E-3,8.799999952E-3
4.760231617E0,-1.897500083E-2,1.361249946E-2,2.337500080E-2
4.762739386E0,-5.499999970E-3,1.113750041E-2,2.956249937E-2
4.765246465E0,7.974999957E-3,-5.912499968E-3,2.584999986E-2
4.767752834E0,1.773750037E-2,-2.543750033E-2,1.979999989E-2
4.770259909E0,2.378750034E-2,-2.914999984E-2,9.899999946E-3
4.772767679E0,2.626249939E-2,-1.691249944E-2,3.849999979E-3
4.775274752E0,2.131249942E-2,5.087499972E-3,-4.674999975E-3
4.777780906E0,1.031249948E-2,1.966249943E-2,-1.319999993E-2
4.780287981E0,-4.262499977E-3,2.584999986E-2,-2.296249941E-2
4.782795986E0,-1.278750040E-2,1.484999992E-2,-3.162499890E-2
4.785302988E0,-2.021249942E-2,-2.199999988E-3,-2.667500079E-2
4.787809219E0,-2.749999985E-2,-9.624999948E-3,-1.814999990E-2
4.790316207E0,-2.997500077E-2,1.374999993E-4,1.374999993E-3
4.792824207E0,-2.378750034E-2,1.113750041E-2,1.856249943E-2
4.795331286E0,-1.278750040E-2,9.899999946E-3,2.832499892E-2
4.797837440E0,3.024999984E-3,1.374999993E-3,3.066249937E-2
4.800344515E0,1.649999991E-2,-1.567500085E-2,2.337500080E-2
4.802852284E0,2.873750031E-2,-2.914999984E-2,1.484999992E-2
4.805359363E0,3.355000168E-2,-2.667500079E-2,3.849999979E-3
4.807865748E0,3.107500076E-2,-7.149999961E-3,-1.099999994E-3
4.810372822E0,1.773750037E-2,7.562499959E-3,-7.149999961E-3
4.812880592E0,3.024999984E-3,2.089999989E-2,-1.691249944E-2
4.815387671E0,-9.212499484E-3,2.337500080E-2,-2.186249942E-2
4.817893824E0,-1.773750037E-2,1.361249946E-2,-2.791249938E-2
4.820400899E0,-2.626249939E-2,-2.199999988E-3,-2.062499896E-2
4.822908823E0,-3.121249937E-2,-4.674999975E-3,-1.086249948E-2
4.825415906E0,-3.244999796E-2,2.612499986E-3,6.324999966E-3
4.827922137E0,-2.144999988E-2,7.562499959E-3,2.337500080E-2
4.830429135E0,-4.262499977E-3,7.562499959E-3,2.956249937E-2
4.832937135E0,1.278750040E-2,-2.199999988E-3,2.832499892E-2
4.835443983E0,2.626249939E-2,-1.938750036E-2,2.089999989E-2
4.837950368E0,3.355000168E-2,-3.162499890E-2,1.361249946E-2
4.840457438E0,3.726249933E-2,-2.667500079E-2,3.849999979E-3
4.842965207E0,2.997500077E-2,-9.624999948E-3,-3.437499981E-3
4.845472286E0,1.649999991E-2,1.113750041E-2,-1.196249947E-2
4.847978445E0,4.262499977E-3,2.337500080E-2,-2.186249942E-2
4.850485751E0,-1.168750040E-2,2.337500080E-2,-2.543750033E-2
4.852993520E0,-2.378750034E-2,7.562499959E-3,-2.791249938E-2
4.855500585E0,-3.355000168E-2,-3.437499981E-3,-1.938750036E-2
4.858006739E0,-3.602499887E-2,-1.099999994E-3,-7.149999961E-3
4.860513814E0,-3.244999796E-2,7.562499959E-3,9.899999946E-3
4.863021727E0,-2.021249942E-2,1.361249946E-2,2.337500080E-2
4.865528806E0,-4.262499977E-3,1.113750041E-2,2.956249937E-2
4.868035036E0,1.278750040E-2,-7.149999961E-3,2.708750032E-2
4.870542034E0,2.626249939E-2,-2.914999984E-2,1.856249943E-2
4.873050049E0,3.231250122E-2,-3.038750030E-2,8.799999952E-3
4.875556898E0,3.726249933E-2,-1.814999990E-2,1.374999993E-3
4.878063296E0,2.997500077E-2,-1.099999994E-3,-7.149999961E-3
4.880570371E0,1.526249945E-2,1.732499897E-2,-1.443750039E-2
4.883078140E0,1.787499990E-3,2.584999986E-2,-2.419999987E-2
4.885585219E0,-7.974999957E-3,1.608750038E-2,-2.914999984E-2
4.888091373E0,-1.897500083E-2,-5.912499968E-3,-2.543750033E-2
4.890598448E0,-2.626249939E-2,-9.624999948E-3,-1.319999993E-2
4.893106371E0,-2.997500077E-2,-1.099999994E-3,5.087499972E-3
4.895613450E0,-2.378750034E-2,1.113750041E-2,2.089999989E-2
4.898119681E0,-1.044999994E-2,1.361249946E-2,2.956249937E-2
4.900626756E0,1.787499990E-3,6.324999966E-3,2.832499892E-2
4.903134679E0,1.526249945E-2,-1.319999993E-2,2.337500080E-2
4.905641728E0,2.378750034E-2,-2.914999984E-2,1.361249946E-2
4.908147882E0,2.873750031E-2,-2.791249938E-2,5.087499972E-3
4.910654957E0,2.626249939E-2,-9.624999948E-3,-2.199999988E-3
4.913162736E0,1.649999991E-2,1.113750041E-2,-9.624999948E-3
4.915670045E0,5.499999970E-3,2.461249940E-2,-1.567500085E-2
4.918176199E0,-7.974999957E-3,2.584999986E-2,-2.296249941E-2
4.920683274E0,-1.773750037E-2,7.562499959E-3,-2.543750033E-2
4.923191044E0,-2.749999985E-2,-5.912499968E-3,-2.062499896E-2
4.925698122E0,-3.121249937E-2,-7.149999961E-3,-7.149999961E-3
4.928204290E0,-2.749999985E-2,2.612499986E-3,8.662499487E-3
4.930711365E0,-1.402499992E-2,1.237499993E-2,1.966249943E-2
4.933219302E0,3.024999984E-3,9.899999946E-3,2.584999986E-2
4.935726381E0,1.649999991E-2,-5.912499968E-3,2.337500080E-2
4.938232612E0,2.749999985E-2,-2.914999984E-2,1.732499897E-2
4.940739668E0,3.121249937E-2,-3.286249936E-2,1.113750041E-2
4.943247591E0,3.121249937E-2,-1.814999990E-2,2.612499986E-3
4.945754670E0,2.502499893E-2,5.087499972E-3,-4.674999975E-3
4.948260824E0,1.154999994E-2,1.966249943E-2,-1.319999993E-2
4.950767899E0,-3.024999984E-3,2.584999986E-2,-2.062499896E-2
4.953275668E0,-1.402499992E-2,1.484999992E-2,-2.667500079E-2
4.955782747E0,-2.626249939E-2,2.612499986E-3,-2.543750033E-2
4.958289132E0,-3.121249937E-2,-3.437499981E-3,-1.567500085E-2
4.960795976E0,-3.355000168E-2,1.374999993E-4,-1.099999994E-3
4.963303976E0,-2.626249939E-2,6.324999966E-3,1.608750038E-2
4.965810993E0,-1.154999994E-2,1.113750041E-2,2.832499892E-2
4.968317223E0,5.499999970E-3,7.562499959E-3,3.066249937E-2
