"Time (s)","Acceleration x (m/s^2)","Acceleration y (m/s^2)","Acceleration z (m/s^2)"
1.220227700E-2,2.370000184E-1,9.354000092E0,1.422000051E0
1.470843500E-2,2.400000021E-2,9.067049980E0,1.054949999E0
1.721520400E-2,-2.820000052E-1,9.570000648E0,8.520000577E-1
1.972282400E-2,-4.249500334E-1,1.020900059E1,8.590500355E-1
2.222967000E-2,-5.790000558E-1,1.023495007E1,1.090950012E0
2.473578500E-2,-6.070500016E-1,9.519000053E0,1.570050120E0
2.724263100E-2,-4.039500058E-1,8.751000404E0,1.963050127E0
2.975032300E-2,-1.140000075E-1,8.689050674E0,2.266950130E0
3.225733000E-2,9.300000221E-2,9.349050522E0,2.700000048E0
3.476325300E-2,3.040500283E-1,1.022295094E1,2.940000057E0
3.727025100E-2,4.309500158E-1,1.055400085E1,2.680950165E0
3.977771300E-2,3.690000176E-1,1.010595036E1,2.403000116E0
4.228471500E-2,3.450000286E-1,9.164999962E0,1.864950061E0
4.479063800E-2,2.850000262E-1,8.578050613E0,1.189050078E0
4.729763600E-2,1.480500102E-1,8.995050430E0,1.125000000E0
4.980532800E-2,-4.050000105E-3,1.007505035E1,1.216050029E0
5.231209900E-2,-1.189500093E-1,1.083900070E1,1.194000006E0
5.481802300E-2,-2.269500047E-1,1.062795067E1,1.201050043E0
5.732502000E-2,-2.599500120E-1,9.526950836E0,1.185000062E0
5.983271200E-2,-2.190000117E-1,8.622000694E0,1.197000027E0
6.233948800E-2,-1.840500087E-1,8.727000237E0,1.704000115E0
6.484564200E-2,-9.705000371E-2,9.639000893E0,2.298000097E0
6.735240900E-2,4.500000179E-2,1.037895012E1,2.542050123E0
6.986006800E-2,1.750500053E-1,1.022805023E1,2.587950230E0
7.236691600E-2,2.730000019E-1,9.369000435E0,2.509050131E0
7.487296400E-2,3.760500252E-1,8.755949974E0,2.281050205E0
7.737973100E-2,3.730500042E-1,9.032999992E0,2.086950064E0
7.988740300E-2,2.560500205E-1,9.910050392E0,1.927050114E0
8.239425100E-2,1.200000048E-1,1.055100060E1,1.576950073E0
8.490032800E-2,-1.120500043E-1,1.042905045E1,1.170000076E0
8.740717200E-2,-2.599500120E-1,9.676950455E0,9.019500613E-1
8.991478800E-2,-2.820000052E-1,8.892000198E0,6.559500098E-1
9.242163600E-2,-2.700000107E-1,8.775000572E0,8.659500480E-1
9.492771300E-2,-2.389500141E-1,9.462000847E0,1.636950135E0
9.743455700E-2,-1.140000075E-1,1.026195049E1,2.188050032E0
9.994224900E-2,2.400000021E-2,1.053705025E1,2.419950008E0
1.024490210E-1,9.795000404E-2,1.000305080E1,2.674050093E0
1.049550980E-1,2.869500220E-1,9.072000504E0,2.482050180E0
1.074619570E-1,3.690000176E-1,8.647950172E0,2.095050097E0
1.099696490E-1,3.010500073E-1,9.196050644E0,2.089950085E0
1.124764200E-1,2.010000050E-1,1.011600018E1,1.996050119E0
1.149825640E-1,7.905000448E-2,1.046805096E1,1.551000118E0
1.174893310E-1,-3.000000119E-2,1.000305080E1,1.273050070E0
1.199970240E-1,-1.000500023E-1,9.121950150E0,1.063050032E0
1.225040400E-1,-7.304999977E-2,8.723999977E0,9.690000415E-1
1.250099630E-1,-1.399500072E-1,9.349050522E0,1.366950035E0
1.275167060E-1,-1.669500023E-1,1.034505081E1,1.857000113E0
1.300243980E-1,-1.330500096E-1,1.077900028E1,2.047049999E0
1.325314000E-1,-9.705000371E-2,1.016295052E1,2.118000031E0
1.350373230E-1,9.000000544E-3,9.105000496E0,2.025000095E0
1.375443210E-1,2.250000089E-1,8.485050201E0,1.896000147E0
1.400517830E-1,2.989500165E-1,8.868000031E0,2.017950058E0
1.425587850E-1,3.450000286E-1,9.819000244E0,2.218950033E0
1.450647080E-1,3.250500262E-1,1.051995087E1,2.158950090E0
1.475717060E-1,1.819500029E-1,1.038795090E1,1.897950053E0
1.500793980E-1,4.950000439E-3,9.586050034E0,1.594050050E0
1.525861600E-1,-1.140000075E-1,8.855999947E0,1.228050113E0
1.550923130E-1,-2.479500175E-1,8.950050354E0,1.228050113E0
1.575990810E-1,-3.769500256E-1,9.744000435E0,1.503000021E0
1.601067730E-1,-3.220500052E-1,1.038795090E1,1.588950038E0
1.626135440E-1,-2.749500275E-1,1.027395058E1,1.639950037E0
1.651197030E-1,-1.260000020E-1,9.538950920E0,1.893000126E0
1.676264700E-1,1.459500045E-1,8.775000572E0,1.927050114E0
1.701342260E-1,3.180000186E-1,8.800950050E0,1.969950080E0
1.726409970E-1,3.900000155E-1,9.709050179E0,2.296050072E0
1.751470740E-1,3.610500097E-1,1.057995033E1,2.286000013E0
1.776539180E-1,2.320500165E-1,1.063800049E1,1.932000041E0
1.801616100E-1,6.405000389E-2,9.804000854E0,1.620000124E0
1.826683810E-1,-5.400000140E-2,8.734050751E0,1.209000111E0
1.851744580E-1,-1.069500074E-1,8.442000389E0,1.113000035E0
1.876813020E-1,-1.759500057E-1,9.238950729E0,1.528950095E0
1.901889180E-1,-1.740000099E-1,1.035300064E1,1.909950137E0
1.926959970E-1,-1.210500076E-1,1.076895046E1,2.056050062E0
1.952018430E-1,-5.700000376E-2,1.013895035E1,2.026950121E0
1.977086490E-1,3.105000220E-2,9.121950150E0,1.944000125E0
2.002163410E-1,1.290000081E-1,8.748000145E0,1.855050087E0
2.027233430E-1,1.650000066E-1,9.286950111E0,1.885950089E0
2.052292670E-1,1.890000105E-1,1.009395027E1,1.876950145E0
2.077362650E-1,1.669500023E-1,1.036200047E1,1.684950113E0
2.102437260E-1,1.099500060E-1,9.868950844E0,1.515000105E0
2.127507120E-1,7.200000435E-2,9.060000420E0,1.510050058E0
2.152566350E-1,6.405000389E-2,8.736000061E0,1.507950068E0
2.177636330E-1,-1.395000052E-2,9.313050270E0,1.855050087E0
2.202713250E-1,-1.170000061E-1,1.023300076E1,2.221050024E0
2.227780970E-1,-1.720500141E-1,1.065405083E1,2.130000114E0
2.252840200E-1,-2.719500065E-1,1.022805023E1,1.941000104E0
2.277910180E-1,-2.239500135E-1,9.253950119E0,1.768950105E0
2.302987100E-1,-7.304999977E-2,8.499000549E0,1.441050053E0
2.328054810E-1,5.505000427E-2,8.743950844E0,1.522050023E0
2.353116350E-1,1.909500062E-1,9.790050507E0,1.762050033E0
2.378184020E-1,2.939999998E-1,1.065405083E1,1.834050059E0
2.403260950E-1,3.160500228E-1,1.064205074E1,1.783050060E0
2.428328660E-1,2.700000107E-1,9.754050255E0,1.707000136E0
2.453389960E-1,1.890000105E-1,8.800950050E0,1.522050023E0
2.478457630E-1,4.305000231E-2,8.784000397E0,1.594050050E0
2.503534740E-1,-1.309500039E-1,9.618000031E0,1.867050052E0
2.528603230E-1,-2.190000117E-1,1.043895054E1,2.023050070E0
2.553663990E-1,-2.629500031E-1,1.036695004E1,1.989000082E0
2.578732640E-1,-2.149500102E-1,9.505050659E0,1.861950040E0
2.603808790E-1,-3.299999982E-2,8.727000237E0,1.800000072E0
2.628877270E-1,9.795000404E-2,8.803050041E0,1.857000113E0
2.653938040E-1,2.179500163E-1,9.697050095E0,1.968000054E0
2.679006480E-1,2.560500205E-1,1.057995033E1,1.951050043E0
2.704083410E-1,1.750500053E-1,1.064205074E1,1.708950043E0
2.729151120E-1,1.000500023E-1,9.819000244E0,1.434000015E0
2.754211890E-1,2.100000158E-2,8.767950058E0,1.194000006E0
2.779280330E-1,-6.105000153E-2,8.467950821E0,1.189050078E0
2.804357250E-1,-1.189500093E-1,9.217950821E0,1.692000031E0
2.829427080E-1,-1.380000114E-1,1.028295040E1,2.118000031E0
2.854486310E-1,-1.069500074E-1,1.069005013E1,2.272050142E0
2.879556430E-1,-1.189500093E-1,1.016295052E1,2.344050169E0
2.904631050E-1,-2.100000158E-2,9.096000671E0,2.083050013E0
2.929701070E-1,6.900000572E-2,8.571000099E0,1.788000107E0
2.954760300E-1,6.195000187E-2,9.091050148E0,1.762050033E0
2.979827970E-1,7.605000585E-2,1.008195019E1,1.740000129E0
3.004905000E-1,7.395000011E-2,1.054395008E1,1.551000118E0
3.029974970E-1,7.605000585E-2,1.009395027E1,1.399950027E0
3.055034200E-1,8.805000782E-2,9.154950142E0,1.294950008E0
3.080104180E-1,1.530000120E-1,8.760000229E0,1.312050104E0
3.105178790E-1,9.795000404E-2,9.273000717E0,1.723050117E0
3.130248810E-1,4.800000042E-2,1.025400066E1,2.154000044E0
3.155310350E-1,-1.095000096E-2,1.074300098E1,2.338950157E0
3.180378020E-1,-8.295000345E-2,1.019205093E1,2.226000071E0
3.205454950E-1,-9.000000358E-2,9.153000832E0,1.957950115E0
3.230523430E-1,-4.050000105E-3,8.499000549E0,1.720950127E0
3.255584200E-1,1.905000024E-2,8.848950386E0,1.732950091E0
3.280651870E-1,9.795000404E-2,9.838050842E0,1.864950061E0
3.305728790E-1,9.795000404E-2,1.058505058E1,1.813950062E0
3.330796500E-1,1.099500060E-1,1.044600010E1,1.683000088E0
3.355858040E-1,7.200000435E-2,9.583950043E0,1.507950068E0
3.380925670E-1,6.000000238E-2,8.839050293E0,1.369050026E0
3.406002590E-1,0.000000000E0,8.973000526E0,1.498050094E0
3.431071070E-1,-9.705000371E-2,9.819000244E0,1.836000085E0
3.456131790E-1,-1.189500093E-1,1.043595028E1,1.927050114E0
3.481200230E-1,-1.669500023E-1,1.025205040E1,1.987050056E0
3.506277150E-1,-1.210500076E-1,9.448050499E0,2.038950205E0
3.531344870E-1,4.500000179E-2,8.707950592E0,1.876950145E0
3.556405640E-1,1.200000048E-1,8.799000740E0,1.849950075E0
3.581474080E-1,1.480500102E-1,9.685050011E0,1.999050140E0
3.606551000E-1,1.339500099E-1,1.054395008E1,1.953000069E0
3.631618710E-1,6.705000252E-2,1.060605049E1,1.726050138E0
3.656680250E-1,-9.000000544E-3,9.799950600E0,1.467000127E0
3.681747920E-1,1.695000008E-2,8.767950058E0,1.149000049E0
3.706824850E-1,1.200000010E-2,8.513999939E0,1.158000112E0
3.731894870E-1,-9.000000544E-3,9.297000885E0,1.611000061E0
3.756954290E-1,-2.295000106E-2,1.039605045E1,2.068050146E0
3.782021960E-1,0.000000000E0,1.078095055E1,2.266950130E0
3.807098880E-1,-1.095000096E-2,1.009605026E1,2.241000175E0
3.832169100E-1,6.405000389E-2,9.009000778E0,2.050950050E0
3.857228330E-1,1.240500063E-1,8.622000694E0,1.876950145E0
3.882298310E-1,1.219500080E-1,9.262950897E0,1.822050095E0
3.907372930E-1,8.400000632E-2,1.017795086E1,1.780950069E0
3.932442950E-1,1.200000010E-2,1.048200035E1,1.603950024E0
3.957502320E-1,-1.605000161E-2,9.852000237E0,1.450050116E0
3.982572300E-1,-2.295000106E-2,8.923050880E0,1.363950014E0
4.007649220E-1,2.100000158E-2,8.683950424E0,1.402950048E0
4.032717180E-1,-2.295000106E-2,9.427950859E0,1.780950069E0
4.057776410E-1,-4.695000127E-2,1.043400097E1,2.154000044E0
4.082846390E-1,-1.000500023E-1,1.079295063E1,2.152050018E0
4.107923310E-1,-1.639500111E-1,1.019700050E1,2.145000219E0
4.132991450E-1,-9.000000358E-2,9.061950684E0,1.881000042E0
4.158052990E-1,7.200000435E-2,8.338950157E0,1.486050129E0
4.183120810E-1,1.150500029E-1,8.758049965E0,1.599000096E0
4.208198510E-1,1.840500087E-1,9.889950752E0,1.849950075E0
4.233266220E-1,1.909500062E-1,1.078395081E1,1.893000126E0
4.258326990E-1,1.410000026E-1,1.064505005E1,1.857000113E0
4.283394660E-1,9.795000404E-2,9.565050125E0,1.618050098E0
4.308472350E-1,6.705000252E-2,8.656949997E0,1.359000087E0
4.333540060E-1,-4.050000105E-3,8.822999954E0,1.495950103E0
4.358600830E-1,-1.020000055E-1,9.780000687E0,1.800000072E0
4.383669280E-1,-1.260000020E-1,1.056300068E1,1.977000117E0
4.408746200E-1,-1.330500096E-1,1.030905056E1,2.025000095E0
4.433813910E-1,-1.095000096E-2,9.334950447E0,1.975050092E0
4.458875450E-1,1.480500102E-1,8.659950256E0,1.929000139E0
4.483943120E-1,2.269500047E-1,8.968950272E0,1.948050141E0
4.509020080E-1,2.490000129E-1,9.931050301E0,1.933950067E0
4.534090100E-1,1.669500023E-1,1.063005066E1,1.837950110E0
4.559149340E-1,2.100000158E-2,1.042905045E1,1.692000031E0
4.584219470E-1,-6.105000153E-2,9.502950668E0,1.431000113E0
4.609294080E-1,-1.140000075E-1,8.617050171E0,1.138950109E0
4.634364100E-1,-1.429500133E-1,8.668950081E0,1.246950030E0
4.659423330E-1,-1.500000060E-1,9.555000305E0,1.789950132E0
4.684493400E-1,-7.800000161E-2,1.042395020E1,2.113950014E0
4.709568020E-1,-7.800000161E-2,1.062105083E1,2.226000071E0
4.734638040E-1,-4.905000329E-2,9.910050392E0,2.290950060E0
4.759697270E-1,8.400000632E-2,8.935050011E0,2.004000187E0
4.784767590E-1,1.099500060E-1,8.715000153E0,1.795050144E0
4.809844510E-1,1.099500060E-1,9.394950867E0,1.747050047E0
4.834912220E-1,9.300000221E-2,1.022805023E1,1.596000075E0
4.859973850E-1,5.205000192E-2,1.042200089E1,1.405050039E0
4.885041530E-1,1.905000024E-2,9.763950348E0,1.426050067E0
4.910118450E-1,7.905000448E-2,8.904000282E0,1.395000100E0
4.935186930E-1,8.100000024E-2,8.787000656E0,1.534050107E0
4.960247700E-1,4.995000362E-2,9.634050369E0,1.975050092E0
4.985315370E-1,2.895000204E-2,1.059405041E1,2.260050058E0
5.010392290E-1,-4.200000316E-2,1.075995064E1,2.263950109E0
5.035460780E-1,-1.120500043E-1,9.876000404E0,2.050950050E0
5.060521700E-1,-5.400000140E-2,8.755949974E0,1.764000058E0
5.085590140E-1,2.595000155E-2,8.373000145E0,1.644000053E0
5.110666290E-1,9.600000083E-2,9.100049973E0,1.762050033E0
5.135734960E-1,1.939500123E-1,1.024695015E1,1.845000029E0
5.160795730E-1,1.990500093E-1,1.079295063E1,1.816950083E0
5.185864170E-1,1.429500133E-1,1.027395058E1,1.732950091E0
5.210941100E-1,8.805000782E-2,9.181950569E0,1.537050128E0
5.236008810E-1,3.105000220E-2,8.631000519E0,1.402950048E0
5.261069720E-1,-9.705000371E-2,9.151050568E0,1.642050028E0
5.286138160E-1,-1.909500062E-1,1.015095043E1,1.909950137E0
5.311214990E-1,-1.999500096E-1,1.057305050E1,1.963050127E0
5.336282710E-1,-2.050500065E-1,1.006500053E1,1.989000082E0
5.361344240E-1,-9.705000371E-2,9.036000252E0,1.920000076E0
5.386411920E-1,8.805000782E-2,8.527950287E0,1.788000107E0
5.411488840E-1,2.059500068E-1,9.109950066E0,1.912950039E0
5.436558860E-1,2.340000123E-1,1.021095085E1,2.061000109E0
5.461618090E-1,1.750500053E-1,1.078800011E1,1.869000077E0
5.486685760E-1,9.795000404E-2,1.034295082E1,1.546050072E0
5.511762890E-1,3.795000166E-2,9.241950035E0,1.257000089E0
5.536832910E-1,-1.605000161E-2,8.470950127E0,1.090950012E0
5.561892140E-1,-4.500000179E-2,8.830050468E0,1.395000100E0
5.586962120E-1,-8.100000024E-2,9.910050392E0,1.897950053E0
5.612036780E-1,-4.695000127E-2,1.073595047E1,2.224050045E0
5.637107570E-1,-1.605000161E-2,1.052295017E1,2.278950214E0
5.662166030E-1,6.000000238E-2,9.463950157E0,2.128050089E0
5.687236010E-1,1.429500133E-1,8.692950249E0,1.936050057E0
5.712312940E-1,1.459500045E-1,8.892000198E0,1.876950145E0
5.737380940E-1,8.595000207E-2,9.759000778E0,1.828950047E0
5.762440170E-1,5.700000376E-2,1.045305061E1,1.699050069E0
5.787510150E-1,-6.000000052E-3,1.025205040E1,1.471950054E0
5.812587070E-1,-6.000000052E-3,9.358950615E0,1.288050056E0
5.837654590E-1,4.950000439E-3,8.662050247E0,1.278000116E0
5.862716120E-1,1.200000010E-2,8.938050270E0,1.576950073E0
5.887783660E-1,-4.695000127E-2,9.937950134E0,2.125950098E0
5.912861350E-1,-7.304999977E-2,1.076700020E1,2.310000181E0
5.937929060E-1,-1.240500063E-1,1.062105083E1,2.194950104E0
5.962989830E-1,-1.240500063E-1,9.627000809E0,2.041949987E0
5.988058460E-1,-1.395000052E-2,8.527950287E0,1.644000053E0
6.013135380E-1,5.700000376E-2,8.362950325E0,1.495950103E0
6.038203100E-1,9.600000083E-2,9.310950279E0,1.731000066E0
6.063264790E-1,1.410000026E-1,1.048695087E1,1.873950124E0
6.088332460E-1,1.600500047E-1,1.087005043E1,1.855050087E0
6.113409380E-1,1.459500045E-1,1.016805077E1,1.711050034E0
6.138479400E-1,1.270500124E-1,8.997000694E0,1.423950076E0
6.163538630E-1,9.105000645E-2,8.602050781E0,1.419000030E0
6.188606300E-1,-1.605000161E-2,9.273000717E0,1.695000052E0
6.213678580E-1,-9.705000371E-2,1.034505081E1,1.989000082E0
6.238749430E-1,-1.450500041E-1,1.068495083E1,2.121000051E0
6.263812480E-1,-9.705000371E-2,9.889950752E0,2.005950212E0
6.288880150E-1,4.305000231E-2,8.824950218E0,1.837950110E0
6.313957070E-1,1.549500078E-1,8.513999939E0,1.804950118E0
6.339026940E-1,2.059500068E-1,9.309000015E0,1.915050149E0
6.364086170E-1,2.149500102E-1,1.044105053E1,2.017950058E0
6.389155960E-1,8.100000024E-2,1.085805035E1,1.903050065E0
6.414232890E-1,-1.950000064E-3,1.021095085E1,1.585050106E0
6.439300310E-1,-5.205000192E-2,8.965950012E0,1.222950101E0
6.464359540E-1,-6.900000572E-2,8.298000336E0,1.009950042E0
6.489429520E-1,-1.360500008E-1,8.847000122E0,1.453050017E0
6.514506250E-1,-1.360500008E-1,1.004595089E1,2.005950212E0
6.539573970E-1,-1.000500023E-1,1.078800011E1,2.253000021E0
6.564635510E-1,-1.170000061E-1,1.050105095E1,2.374950171E0
6.589703180E-1,-9.000000544E-3,9.421050072E0,2.229000092E0
6.614780100E-1,9.300000221E-2,8.623950005E0,1.801950097E0
6.639848580E-1,1.120500043E-1,8.822999954E0,1.651950121E0
6.664909350E-1,1.099500060E-1,9.759000778E0,1.659000039E0
6.689977020E-1,7.395000011E-2,1.042005062E1,1.563000083E0
6.715053950E-1,3.600000218E-2,1.023300076E1,1.503000021E0
6.740122090E-1,6.900000572E-2,9.349050522E0,1.441050053E0
6.765182860E-1,8.595000207E-2,8.740950584E0,1.374000072E0
6.790250530E-1,8.805000782E-2,9.136050224E0,1.699050069E0
6.815327300E-1,3.299999982E-2,1.013700008E1,2.095050097E0
6.840395790E-1,-2.595000155E-2,1.080495071E1,2.278950214E0
6.865456600E-1,-9.495000541E-2,1.040505028E1,2.188050032E0
6.890525050E-1,-9.495000541E-2,9.270000458E0,1.917000055E0
6.915601590E-1,1.695000008E-2,8.404050827E0,1.642050028E0
6.940669300E-1,8.805000782E-2,8.617050171E0,1.659000039E0
6.965730070E-1,1.530000120E-1,9.706050873E0,1.804950118E0
6.990798510E-1,1.750500053E-1,1.068495083E1,1.885950089E0
7.015875440E-1,1.339500099E-1,1.067595005E1,1.840950131E0
7.040943150E-1,8.100000024E-2,9.732000351E0,1.656000137E0
7.066004690E-1,1.905000024E-2,8.770050049E0,1.395000100E0
7.091074670E-1,-7.605000585E-2,8.784000397E0,1.470000029E0
7.116149280E-1,-1.669500023E-1,9.670050621E0,1.768950105E0
7.141219300E-1,-1.840500087E-1,1.047000027E1,1.900950074E0
7.166278530E-1,-2.239500135E-1,1.041195011E1,1.957950115E0
7.191346210E-1,-1.570500135E-1,9.570000648E0,2.017950058E0
7.216422980E-1,4.800000042E-2,8.690999985E0,1.855050087E0
7.241493000E-1,1.750500053E-1,8.686050415E0,1.855050087E0
7.266552230E-1,2.440500110E-1,9.574050903E0,2.004000187E0
7.291622210E-1,2.299500108E-1,1.051800060E1,1.987050056E0
7.316699130E-1,1.219500080E-1,1.076700020E1,1.744950056E0
7.341766840E-1,-1.950000064E-3,9.997950554E0,1.491000056E0
7.366828380E-1,-4.200000316E-2,8.839050293E0,1.132050037E0
7.391896060E-1,-6.105000153E-2,8.392050743E0,1.114950061E0
7.416972980E-1,-6.900000572E-2,9.073950768E0,1.537050128E0
7.442040690E-1,-2.595000155E-2,1.026900005E1,2.037000179E0
7.467102230E-1,4.800000042E-2,1.083900070E1,2.281050205E0
7.492169900E-1,4.500000179E-2,1.029000092E1,2.322000027E0
7.517246830E-1,8.805000782E-2,9.184050560E0,2.146950006E0
7.542314540E-1,1.270500124E-1,8.668950081E0,1.933950067E0
7.567376080E-1,8.595000207E-2,9.133950233E0,1.780950069E0
7.592443750E-1,6.405000389E-2,1.002495003E1,1.611000061E0
7.617520670E-1,-1.095000096E-2,1.039995003E1,1.441050053E0
7.642589150E-1,-2.805000171E-2,9.840000153E0,1.386000037E0
7.667649920E-1,-6.000000052E-3,8.976000786E0,1.374000072E0
7.692718360E-1,3.795000166E-2,8.734050751E0,1.458000064E0
7.717794960E-1,2.895000204E-2,9.460050583E0,1.924950123E0
7.742862670E-1,-1.800000109E-2,1.045305061E1,2.286000013E0
7.767923440E-1,-6.599999964E-2,1.076205063E1,2.230950117E0
7.792991920E-1,-1.620000005E-1,1.014405060E1,2.113950014E0
7.818068840E-1,-1.240500063E-1,9.004950523E0,1.789950132E0
7.843136420E-1,-2.100000158E-2,8.305050850E0,1.431000113E0
7.868197950E-1,6.705000252E-2,8.775000572E0,1.563000083E0
7.893265630E-1,1.579500139E-1,9.925950050E0,1.837950110E0
7.918342550E-1,2.130000144E-1,1.075005054E1,1.855050087E0
7.943412570E-1,1.960500032E-1,1.057995033E1,1.800000072E0
7.968471800E-1,1.720500141E-1,9.558000565E0,1.642050028E0
7.993539470E-1,1.309500039E-1,8.719950676E0,1.491000056E0
8.018616400E-1,4.095000029E-2,8.926050186E0,1.623000026E0
8.043686420E-1,-8.295000345E-2,9.907050133E0,1.876950145E0
8.068745650E-1,-1.600500047E-1,1.060605049E1,1.977000117E0
8.093815630E-1,-1.740000099E-1,1.029300022E1,1.951050043E0
8.118890430E-1,-5.205000192E-2,9.226950645E0,1.810050130E0
8.143960450E-1,1.050000042E-1,8.571000099E0,1.807050109E0
8.169019780E-1,2.059500068E-1,8.947050095E0,1.912950039E0
8.194089760E-1,2.610000074E-1,9.972000122E0,1.987050056E0
8.219166740E-1,1.870500147E-1,1.071405029E1,1.927050114E0
8.244234450E-1,6.705000252E-2,1.053900051E1,1.756950140E0
8.269293720E-1,-3.795000166E-2,9.534000397E0,1.422000051E0
8.294363700E-1,-6.900000572E-2,8.586000443E0,1.042950034E0
8.319440620E-1,-1.020000055E-1,8.575950623E0,1.204050064E0
8.344508340E-1,-1.720500141E-1,9.487950325E0,1.744950056E0
8.369569870E-1,-1.069500074E-1,1.047705078E1,2.116050005E0
8.394637550E-1,-7.605000585E-2,1.069695091E1,2.305050135E0
8.419714470E-1,-2.805000171E-2,9.949950218E0,2.305050135E0
8.444782950E-1,1.170000061E-1,8.899050713E0,1.993950129E0
8.469843720E-1,1.390500069E-1,8.590050697E0,1.765950084E0
8.494911390E-1,1.429500133E-1,9.280050278E0,1.711050034E0
8.519988320E-1,7.395000011E-2,1.022805023E1,1.644000053E0
8.545057000E-1,4.500000179E-2,1.052295017E1,1.519950032E0
8.570117770E-1,2.895000204E-2,9.876000404E0,1.414950013E0
8.595186160E-1,5.505000427E-2,8.880000114E0,1.312050104E0
8.620262310E-1,9.105000645E-2,8.686050415E0,1.455000043E0
8.645330790E-1,8.595000207E-2,9.502950668E0,1.893000126E0
8.670391610E-1,6.195000187E-2,1.055595016E1,2.250000000E0
8.695460050E-1,-3.495000303E-2,1.082400036E1,2.359950066E0
8.720536580E-1,-7.304999977E-2,1.000800037E1,2.161950111E0
8.745606600E-1,-1.800000109E-2,8.822999954E0,1.836000085E0
8.770665830E-1,5.505000427E-2,8.374950409E0,1.623000026E0
8.795735810E-1,9.600000083E-2,9.024000168E0,1.642050028E0
8.820810420E-1,1.459500045E-1,1.013505077E1,1.765950084E0
8.845880440E-1,1.120500043E-1,1.071405029E1,1.786050081E0
8.870939680E-1,7.200000435E-2,1.026195049E1,1.774050117E0
8.896009660E-1,4.800000042E-2,9.234000206E0,1.537050128E0
8.921084270E-1,3.795000166E-2,8.751000404E0,1.405050039E0
8.946154290E-1,-9.000000358E-2,9.249000549E0,1.668000102E0
8.971213570E-1,-1.450500041E-1,1.013895035E1,1.917000055E0
8.996283550E-1,-1.720500141E-1,1.046805096E1,1.912950039E0
9.021360130E-1,-1.720500141E-1,9.955050468E0,1.981950045E0
9.046427850E-1,-4.905000329E-2,8.985000610E0,1.948050141E0
9.071489580E-1,1.270500124E-1,8.602050781E0,1.812000036E0
9.096557250E-1,2.080500126E-1,9.201000214E0,1.951050043E0
9.121634170E-1,2.059500068E-1,1.026195049E1,2.032050133E0
9.146702560E-1,1.720500141E-1,1.078605080E1,1.840950131E0
9.171763230E-1,5.700000376E-2,1.030905056E1,1.563000083E0
9.196830900E-1,2.895000204E-2,9.164999962E0,1.258950114E0
9.221907830E-1,3.105000220E-2,8.443950653E0,1.051050067E0
9.246976310E-1,-1.395000052E-2,8.836950302E0,1.398000121E0
9.272037080E-1,-2.295000106E-2,9.946050644E0,1.893000126E0
9.297105520E-1,-6.000000052E-3,1.073595047E1,2.180999994E0
9.322181670E-1,1.200000010E-2,1.048695087E1,2.305050135E0
9.347250160E-1,2.895000204E-2,9.475950241E0,2.169000149E0
9.372310920E-1,1.030500084E-1,8.734050751E0,1.981950045E0
9.397379370E-1,8.595000207E-2,8.887050629E0,1.831050038E0
9.422456730E-1,1.050000042E-1,9.723000526E0,1.707000136E0
9.447524440E-1,4.305000231E-2,1.034805012E1,1.579950094E0
9.472585210E-1,-9.000000544E-3,1.016295052E1,1.510050058E0
9.497653450E-1,-1.605000161E-2,9.342000008E0,1.374000072E0
9.522730380E-1,3.299999982E-2,8.703000069E0,1.333050013E0
9.547798240E-1,1.950000064E-3,9.049950600E0,1.684950113E0
9.572859780E-1,-1.095000096E-2,1.005600071E1,2.182950020E0
9.597927300E-1,-4.500000179E-2,1.077195072E1,2.278950214E0
9.623004220E-1,-1.429500133E-1,1.055805016E1,2.157000065E0
9.648074240E-1,-1.500000060E-1,9.511950493E0,1.965000153E0
9.673133470E-1,-3.495000303E-2,8.440050125E0,1.575000048E0
9.698201150E-1,6.705000252E-2,8.410950661E0,1.539000034E0
9.723278070E-1,1.579500139E-1,9.421050072E0,1.776000142E0
9.748348090E-1,1.960500032E-1,1.057995033E1,1.864950061E0
9.773407320E-1,1.770000011E-1,1.088700008E1,1.836000085E0
9.798477300E-1,1.390500069E-1,1.003905010E1,1.728000045E0
9.823551920E-1,9.600000083E-2,8.914050102E0,1.458000064E0
9.848621940E-1,1.695000008E-2,8.644950867E0,1.434000015E0
9.873681120E-1,-7.304999977E-2,9.450000763E0,1.719000101E0
9.898751100E-1,-1.279500127E-1,1.044795036E1,1.989000082E0
9.923828020E-1,-1.450500041E-1,1.057500076E1,2.041949987E0
9.948895730E-1,-8.505000174E-2,9.688950539E0,1.939050078E0
9.973954960E-1,4.995000362E-2,8.710050583E0,1.840950131E0
9.999024940E-1,1.699500084E-1,8.593050003E0,1.896000147E0
1.002410197E0,2.200500071E-1,9.495000839E0,2.017950058E0
1.004916968E0,1.909500062E-1,1.053195095E1,2.004000187E0
1.007423117E0,5.700000376E-2,1.078095055E1,1.771050096E0
1.009929884E0,-4.905000329E-2,9.985950470E0,1.507950068E0
1.012437653E0,-1.020000055E-1,8.824950218E0,1.146000028E0
1.014944424E0,-1.069500074E-1,8.334000587E0,1.057950020E0
1.017450501E0,-1.380000114E-1,9.057000160E0,1.573050022E0
1.019957345E0,-1.140000075E-1,1.025400066E1,2.065950155E0
1.022465038E0,-2.295000106E-2,1.082895088E1,2.250000000E0
1.024971809E0,-2.295000106E-2,1.033305073E1,2.359950066E0
1.027477963E0,6.195000187E-2,9.163050652E0,2.113950014E0
1.029984730E0,1.270500124E-1,8.538000107E0,1.788000107E0
1.032492432E0,1.000500023E-1,8.980950356E0,1.731000066E0
1.034999204E0,6.000000238E-2,1.004595089E1,1.719000101E0
1.037505367E0,2.400000021E-2,1.057800007E1,1.522050023E0
1.040012134E0,7.050000131E-3,1.010805035E1,1.429050088E0
1.042519826E0,4.800000042E-2,9.081000328E0,1.300050020E0
1.045026847E0,1.170000061E-1,8.610000610E0,1.336050034E0
1.047532770E0,1.099500060E-1,9.226950645E0,1.783050060E0
1.050039537E0,4.995000362E-2,1.031400013E1,2.254950047E0
1.052547216E0,7.050000131E-3,1.088400078E1,2.386950016E0
1.055054218E0,-1.050000042E-1,1.027800083E1,2.182950020E0
1.057560141E0,-7.800000161E-2,9.139050484E0,1.872000098E0
1.060067139E0,-4.050000105E-3,8.413050652E0,1.632000089E0
1.062574836E0,2.400000021E-2,8.782050133E0,1.659000039E0
1.065081607E0,9.105000645E-2,9.850050926E0,1.780950069E0
1.067587530E0,1.630500108E-1,1.062105083E1,1.765950084E0
1.070094528E0,1.120500043E-1,1.044795036E1,1.726050138E0
1.072602221E0,1.000500023E-1,9.559950829E0,1.588950038E0
1.075108992E0,6.405000389E-2,8.806050301E0,1.438050032E0
1.077615146E0,-5.205000192E-2,9.019050598E0,1.612950087E0
1.080121913E0,-1.620000005E-1,9.874050140E0,1.885950089E0
1.082629605E0,-1.960500032E-1,1.047495079E1,1.948050141E0
1.085136367E0,-2.149500102E-1,1.024005032E1,1.969950080E0
1.087642520E0,-1.429500133E-1,9.342000008E0,1.981950045E0
1.090149293E0,6.900000572E-2,8.595000267E0,1.776000142E0
1.092656985E0,1.890000105E-1,8.799000740E0,1.848000050E0
1.095163833E0,2.680500150E-1,9.816000938E0,2.056050062E0
1.097669900E0,2.130000144E-1,1.072605038E1,1.965000153E0
1.100176667E0,1.170000061E-1,1.073805046E1,1.707000136E0
1.102684360E0,2.100000158E-2,9.760950089E0,1.399950027E0
1.105191208E0,0.000000000E0,8.614050865E0,1.048050046E0
1.107697285E0,-5.700000376E-2,8.442000389E0,1.162950039E0
1.110204129E0,-8.805000782E-2,9.370950699E0,1.660950065E0
1.112711821E0,-5.700000376E-2,1.053705025E1,2.125950098E0
1.115218592E0,-1.800000109E-2,1.085100079E1,2.341050148E0
1.117724746E0,1.905000024E-2,9.972000122E0,2.281050205E0
1.120231514E0,1.000500023E-1,8.881950378E0,2.071050167E0
1.122739206E0,1.270500124E-1,8.626049995E0,1.921950102E0
1.125245977E0,1.170000061E-1,9.361050606E0,1.807050109E0
1.127752131E0,6.405000389E-2,1.025400066E1,1.675950050E0
1.130258913E0,-2.100000158E-2,1.044105053E1,1.522050023E0
1.132766606E0,-5.400000140E-2,9.715950012E0,1.378950119E0
1.135273377E0,-2.295000106E-2,8.830050468E0,1.252050042E0
1.137779531E0,1.950000064E-3,8.760000229E0,1.407000065E0
1.140286298E0,-1.605000161E-2,9.627000809E0,1.903050065E0
1.142793990E0,-4.005000368E-2,1.055595016E1,2.254950047E0
1.145300992E0,-5.400000140E-2,1.075200081E1,2.238000154E0
1.147806915E0,-1.309500039E-1,1.000095081E1,2.161950111E0
1.150313908E0,-5.205000192E-2,8.839050293E0,1.824000120E0
1.152821370E0,6.405000389E-2,8.337000847E0,1.507950068E0
1.155328372E0,1.200000048E-1,8.940000534E0,1.659000039E0
1.157834526E0,1.339500099E-1,1.013505077E1,1.891050100E0
1.160341293E0,1.579500139E-1,1.081005096E1,1.810050130E0
1.162848985E0,1.339500099E-1,1.039800072E1,1.663950086E0
1.165355756E0,1.309500039E-1,9.301050186E0,1.471950054E0
1.167861680E0,1.050000042E-1,8.629050255E0,1.395000100E0
1.170368678E0,1.395000052E-2,9.088050842E0,1.663950086E0
1.172876399E0,-7.800000161E-2,1.009905052E1,1.936050057E0
1.175383170E0,-1.170000061E-1,1.064700031E1,2.047049999E0
1.177889309E0,-1.140000075E-1,1.010595036E1,2.001000166E0
1.180396153E0,-2.595000155E-2,9.052050591E0,1.897950053E0
1.182903749E0,1.120500043E-1,8.571000099E0,1.864950061E0
1.185410598E0,1.770000011E-1,9.157950401E0,1.948050141E0
1.187916656E0,1.890000105E-1,1.016805077E1,1.957950115E0
1.190423500E0,1.080000028E-1,1.072605038E1,1.852950096E0
1.192931192E0,-1.605000161E-2,1.031205082E1,1.656000137E0
1.195437963E0,-4.695000127E-2,9.246000290E0,1.303950071E0
1.197944117E0,-6.105000153E-2,8.478000641E0,1.054949999E0
1.200450884E0,-7.605000585E-2,8.772000313E0,1.350000024E0
1.202958577E0,-9.300000221E-2,9.796950340E0,1.920000076E0
1.205465348E0,-3.000000119E-2,1.062300014E1,2.176050186E0
1.207971425E0,-4.905000329E-2,1.061805058E1,2.311950207E0
1.210478269E0,9.000000544E-3,9.732000351E0,2.257050037E0
1.212985985E0,1.030500084E-1,8.758049965E0,1.885950089E0
1.215492987E0,1.240500063E-1,8.686050415E0,1.695000052E0
1.217998910E0,1.050000042E-1,9.511950493E0,1.696950078E0
1.220505678E0,7.395000011E-2,1.037205029E1,1.561050057E0
1.223013365E0,4.800000042E-2,1.041195011E1,1.458000064E0
1.225520367E0,4.095000029E-2,9.619950294E0,1.405050039E0
1.228026275E0,9.300000221E-2,8.767950058E0,1.383000016E0
1.230533273E0,1.099500060E-1,8.844000816E0,1.600950122E0
1.233040965E0,6.405000389E-2,9.784950256E0,2.020050049E0
1.235547737E0,-6.000000052E-3,1.072095013E1,2.286000013E0
1.238053660E0,-8.805000782E-2,1.065705013E1,2.230950117E0
1.240560658E0,-1.140000075E-1,9.619950294E0,2.023050070E0
1.243068350E0,-1.605000161E-2,8.599950790E0,1.747050047E0
1.245575121E0,6.705000252E-2,8.482950211E0,1.618050098E0
1.248081275E0,1.219500080E-1,9.357000351E0,1.732950091E0
1.250588042E0,1.890000105E-1,1.040505028E1,1.840950131E0
1.253095740E0,1.429500133E-1,1.071900082E1,1.828950047E0
1.255602511E0,8.805000782E-2,1.002705002E1,1.695000052E0
1.258108665E0,4.095000029E-2,9.028950691E0,1.455000043E0
1.260615432E0,-2.100000158E-2,8.722050667E0,1.429050088E0
1.263123124E0,-1.380000114E-1,9.406949997E0,1.762050033E0
1.265629972E0,-1.759500057E-1,1.030695057E1,1.941000104E0
1.268136002E0,-1.549500078E-1,1.049100018E1,1.936050057E0
1.270642770E0,-1.309500039E-1,9.838050842E0,2.035050154E0
1.273150462E0,6.000000238E-2,8.855999947E0,1.933950067E0
1.275657310E0,1.720500141E-1,8.587950706E0,1.810050130E0
1.278163387E0,2.539499998E-1,9.370950699E0,1.992000103E0
1.280670231E0,2.370000184E-1,1.044405079E1,2.044049978E0
1.283177923E0,1.510500014E-1,1.082700062E1,1.792950034E0
1.285684695E0,2.895000204E-2,1.014900017E1,1.467000127E0
1.288190849E0,-3.795000166E-2,8.997000694E0,1.156050086E0
1.290697616E0,-4.200000316E-2,8.419950485E0,1.093950033E0
1.293205289E0,-6.105000153E-2,8.968950272E0,1.471950054E0
1.295712291E0,-4.500000179E-2,1.008195019E1,1.977000117E0
1.298218214E0,2.400000021E-2,1.076700020E1,2.254950047E0
1.300724980E0,4.800000042E-2,1.036005020E1,2.305050135E0
1.303232673E0,9.300000221E-2,9.309000015E0,2.158950090E0
1.305739459E0,1.339500099E-1,8.740950584E0,1.972050071E0
1.308245613E0,7.200000435E-2,9.057000160E0,1.864950061E0
1.310752611E0,3.795000166E-2,9.880950928E0,1.764000058E0
1.313260072E0,-9.000000544E-3,1.036905003E1,1.515000105E0
1.315767074E0,-3.795000166E-2,1.001700020E1,1.273050070E0
1.318272982E0,-2.595000155E-2,9.189000130E0,1.252050042E0
1.320779980E0,0.000000000E0,8.746050835E0,1.354950070E0
1.323287673E0,3.105000220E-2,9.202950478E0,1.747050047E0
1.325794444E0,1.950000064E-3,1.014900017E1,2.212050200E0
1.328300598E0,-2.595000155E-2,1.072395039E1,2.250000000E0
1.330807365E0,-9.705000371E-2,1.038405037E1,2.137950182E0
1.333315057E0,-1.330500096E-1,9.426000595E0,1.968000054E0
1.335821829E0,-1.800000109E-2,8.511000633E0,1.618050098E0
1.338327983E0,5.205000192E-2,8.550000191E0,1.555950046E0
1.340834750E0,1.270500124E-1,9.499950409E0,1.777950048E0
1.343342457E0,1.750500053E-1,1.051995087E1,1.864950061E0
1.345849228E0,2.010000050E-1,1.075500011E1,1.783050060E0
1.348355382E0,1.909500062E-1,9.958050728E0,1.627950072E0
1.350862244E0,1.360500008E-1,8.950050354E0,1.450050116E0
1.353369860E0,5.205000192E-2,8.764950752E0,1.494000077E0
1.355876727E0,-7.095000148E-2,9.486000061E0,1.744950056E0
1.358382804E0,-1.429500133E-1,1.037400055E1,1.941000104E0
1.360889648E0,-1.720500141E-1,1.047195053E1,2.005950212E0
1.363397340E0,-1.140000075E-1,9.658050537E0,1.944000125E0
1.365904112E0,3.795000166E-2,8.806050301E0,1.888950109E0
1.368410188E0,1.750500053E-1,8.727000237E0,1.939050078E0
1.370917033E0,2.389500141E-1,9.565050125E0,2.050950050E0
1.373424725E0,2.080500126E-1,1.048395061E1,2.011049986E0
1.375931496E0,9.600000083E-2,1.063995075E1,1.792950034E0
1.378437650E0,-1.800000109E-2,9.895050049E0,1.453050017E0
1.380944417E0,-7.605000585E-2,8.855999947E0,1.158000112E0
1.383452110E0,-1.170000061E-1,8.478000641E0,1.101000071E0
1.385959112E0,-1.810500026E-1,9.157950401E0,1.563000083E0
1.388465041E0,-1.399500072E-1,1.019505024E1,2.023050070E0
1.390971808E0,-8.505000174E-2,1.069500065E1,2.173950195E0
1.393479500E0,-6.105000153E-2,1.023795033E1,2.241000175E0
1.395986502E0,4.800000042E-2,9.201000214E0,2.110949993E0
1.398492425E0,1.650000066E-1,8.631000519E0,1.822050095E0
1.400999423E0,1.360500008E-1,9.088050842E0,1.800000072E0
1.403506890E0,1.000500023E-1,1.004595089E1,1.810050130E0
1.406013892E0,6.000000238E-2,1.047705078E1,1.555950046E0
1.408519786E0,1.695000008E-2,1.003695011E1,1.342950106E0
1.411026784E0,-4.050000105E-3,9.109950066E0,1.252050042E0
1.413534476E0,6.705000252E-2,8.665050507E0,1.302000046E0
1.416041247E0,4.800000042E-2,9.211050034E0,1.731000066E0
1.418547401E0,0.000000000E0,1.023795033E1,2.182950020E0
1.421054169E0,-2.100000158E-2,1.081500053E1,2.338950157E0
1.423561861E0,-7.605000585E-2,1.030695057E1,2.188050032E0
1.426068632E0,-6.599999964E-2,9.208050728E0,1.891050100E0
1.428574786E0,4.305000231E-2,8.461050034E0,1.668000102E0
1.431081567E0,8.100000024E-2,8.723999977E0,1.738050103E0
1.433589336E0,1.219500080E-1,9.771000862E0,1.888950109E0
1.436096108E0,1.480500102E-1,1.062105083E1,1.881000042E0
1.438602185E0,1.080000028E-1,1.055400085E1,1.708950043E0
1.441108991E0,4.800000042E-2,9.685050011E0,1.506000042E0
1.443616760E0,1.395000052E-2,8.830050468E0,1.345050097E0
1.446123531E0,-3.000000119E-2,8.799000740E0,1.446000099E0
1.448629698E0,-1.360500008E-1,9.640950203E0,1.824000120E0
1.451136465E0,-1.480500102E-1,1.042005062E1,1.980000138E0
1.453644158E0,-1.840500087E-1,1.044600010E1,1.980000138E0
1.456151160E0,-1.240500063E-1,9.658050537E0,2.056050062E0
1.458657006E0,3.105000220E-2,8.763000488E0,1.888950109E0
1.461163850E0,1.720500141E-1,8.647950172E0,1.783050060E0
1.463671542E0,2.149500102E-1,9.469050407E0,1.965000153E0
1.466178544E0,1.909500062E-1,1.046805096E1,1.975050092E0
1.468684467E0,1.030500084E-1,1.077405071E1,1.744950056E0
1.471191470E0,1.950000064E-3,1.008405018E1,1.470000029E0
1.473698932E0,4.950000439E-3,8.959050179E0,1.165950060E0
1.476205939E0,-6.000000052E-3,8.407950401E0,1.081950068E0
1.478711862E0,-3.795000166E-2,9.016950607E0,1.531950116E0
1.481218855E0,-6.105000153E-2,1.017105007E1,2.017950058E0
1.483726547E0,-3.495000303E-2,1.081695080E1,2.298000097E0
1.486233310E0,-2.295000106E-2,1.032405090E1,2.322000027E0
1.488739233E0,3.105000220E-2,9.253950119E0,2.113950014E0
1.491246231E0,1.240500063E-1,8.679000854E0,1.924950123E0
1.493753923E0,9.795000404E-2,9.076050758E0,1.857000113E0
1.496260694E0,1.120500043E-1,9.940950394E0,1.735050082E0
1.498766848E0,7.200000435E-2,1.036695004E1,1.516950130E0
1.501273615E0,9.000000544E-3,9.948000908E0,1.369050026E0
1.503781308E0,-1.950000064E-3,9.136050224E0,1.369050026E0
1.506288156E0,2.595000155E-2,8.794050217E0,1.443000078E0
1.508794233E0,7.050000131E-3,9.301050186E0,1.776000142E0
1.511301000E0,-6.599999964E-2,1.021095085E1,2.173950195E0
1.513808687E0,-7.800000161E-2,1.063995075E1,2.176050186E0
1.516315535E0,-1.789500117E-1,1.023000050E1,2.080049992E0
1.518821593E0,-1.500000060E-1,9.274950027E0,1.939050078E0
1.521328438E0,-1.395000052E-2,8.499000549E0,1.576950073E0
1.523836048E0,7.200000435E-2,8.712000847E0,1.612950087E0
1.526342896E0,1.390500069E-1,9.699000359E0,1.903050065E0
1.528848959E0,2.010000050E-1,1.060605049E1,1.896000147E0
1.531355803E0,1.990500093E-1,1.063995075E1,1.756950140E0
1.533863496E0,1.309500039E-1,9.763950348E0,1.596000075E0
1.536370267E0,1.000500023E-1,8.847000122E0,1.435950041E0
1.538876344E0,1.200000010E-2,8.815050125E0,1.543950081E0
1.541383188E0,-9.705000371E-2,9.673050880E0,1.834050059E0
1.543890880E0,-1.309500039E-1,1.045605087E1,1.987050056E0
1.546397651E0,-1.450500041E-1,1.042200089E1,1.953000069E0
1.548903805E0,-1.050000042E-1,9.517050743E0,1.879050136E0
1.551410572E0,4.995000362E-2,8.727000237E0,1.845000029E0
1.553918265E0,1.890000105E-1,8.776950836E0,1.956000090E0
1.556425267E0,2.200500071E-1,9.649050713E0,2.085000038E0
1.558931179E0,2.299500108E-1,1.053495026E1,2.056050062E0
1.561438177E0,1.030500084E-1,1.064505005E1,1.755000114E0
1.563945638E0,-3.795000166E-2,9.922050476E0,1.467000127E0
1.566452640E0,-9.705000371E-2,8.944950104E0,1.173000097E0
1.568958564E0,-8.505000174E-2,8.490000725E0,1.089000106E0
1.571465553E0,-1.189500093E-1,9.032999992E0,1.525050044E0
1.573973014E0,-1.189500093E-1,1.005105019E1,2.020050049E0
1.576480097E0,-3.795000166E-2,1.068495083E1,2.178000212E0
1.578985943E0,-3.299999982E-2,1.039995003E1,2.281050205E0
1.581492941E0,6.195000187E-2,9.448050499E0,2.206950188E0
1.584000634E0,1.240500063E-1,8.723999977E0,1.843050122E0
1.586507482E0,1.120500043E-1,8.914050102E0,1.756950140E0
1.589013559E0,8.805000782E-2,9.814050674E0,1.762050033E0
1.591520326E0,6.900000572E-2,1.042695045E1,1.510050058E0
1.594028018E0,5.700000376E-2,1.023795033E1,1.359000087E0
1.596534789E0,4.095000029E-2,9.349050522E0,1.357050061E0
1.599040943E0,9.795000404E-2,8.739000320E0,1.414950013E0
1.601547787E0,8.805000782E-2,9.105000496E0,1.731000066E0
1.604055456E0,7.395000011E-2,1.004895020E1,2.133000135E0
1.606562227E0,2.400000021E-2,1.072605038E1,2.287950039E0
1.609068276E0,-7.095000148E-2,1.039995003E1,2.182950020E0
1.611575120E0,-1.020000055E-1,9.369000435E0,1.936050057E0
1.614082778E0,-2.100000158E-2,8.530950546E0,1.699050069E0
1.616589550E0,5.700000376E-2,8.656949997E0,1.675950050E0
1.619095698E0,1.050000042E-1,9.598050117E0,1.834050059E0
1.621602336E0,1.549500078E-1,1.051800060E1,1.888950109E0
1.624108933E0,1.410000026E-1,1.061805058E1,1.755000114E0
1.626617158E0,1.150500029E-1,9.856950760E0,1.620000124E0
1.629123006E0,7.395000011E-2,8.940000534E0,1.438050032E0
1.631629850E0,9.000000544E-3,8.719950676E0,1.426050067E0
1.634137543E0,-1.090500057E-1,9.462000847E0,1.762050033E0
1.636644545E0,-1.860000044E-1,1.033800030E1,1.945950150E0
1.639150468E0,-1.930500120E-1,1.050300026E1,1.921950102E0
1.641657466E0,-1.909500062E-1,9.816000938E0,1.996050119E0
1.644164927E0,-3.495000303E-2,8.896950722E0,1.957950115E0
1.646671944E0,1.549500078E-1,8.599950790E0,1.798050046E0
1.649177867E0,2.440500110E-1,9.342000008E0,1.977000117E0
1.651684832E0,2.509500086E-1,1.034505081E1,2.059050083E0
1.654192525E0,1.789500117E-1,1.076205063E1,1.824000120E0
1.656699296E0,6.705000252E-2,1.016100025E1,1.531950116E0
1.659205237E0,1.905000024E-2,9.129000664E0,1.261050105E0
1.661712235E0,-4.050000105E-3,8.521050453E0,1.084050059E0
1.664219922E0,-7.095000148E-2,8.977950096E0,1.417050123E0
1.666726694E0,-9.000000358E-2,9.931050301E0,1.915050149E0
1.669232847E0,-3.795000166E-2,1.062795067E1,2.206950188E0
1.671739625E0,-3.299999982E-2,1.034295082E1,2.262000084E0
1.674247317E0,2.595000155E-2,9.466950417E0,2.152050018E0
1.676754169E0,1.270500124E-1,8.836950302E0,1.999050140E0
1.679260246E0,1.309500039E-1,9.024000168E0,1.941000104E0
1.681767013E0,9.300000221E-2,9.814050674E0,1.860000134E0
1.684274706E0,6.405000389E-2,1.034100056E1,1.630050063E0
1.686781554E0,7.050000131E-3,1.008405018E1,1.330950022E0
1.689287631E0,-2.100000158E-2,9.310950279E0,1.290000081E0
1.691794475E0,1.395000052E-2,8.787000656E0,1.339950085E0
1.694302090E0,2.595000155E-2,9.052050591E0,1.620000124E0
1.696808938E0,-3.495000303E-2,9.973950386E0,2.071050167E0
1.699315092E0,-4.905000329E-2,1.064700031E1,2.212050200E0
1.701821855E0,-1.069500074E-1,1.048200035E1,2.092050076E0
1.704329548E0,-1.450500041E-1,9.627000809E0,2.029950142E0
1.706836319E0,-3.000000119E-2,8.690999985E0,1.756950140E0
1.709342487E0,5.505000427E-2,8.491950035E0,1.552950025E0
1.711849254E0,1.270500124E-1,9.285000801E0,1.774050117E0
1.714356946E0,1.770000011E-1,1.035300064E1,1.908000112E0
1.716863729E0,1.789500117E-1,1.077600098E1,1.801950097E0
1.719369883E0,1.549500078E-1,1.021395016E1,1.690050125E0
1.721876654E0,1.150500029E-1,9.145950317E0,1.483950019E0
1.724384346E0,1.050000042E-1,8.655000687E0,1.390950084E0
1.726891348E0,0.000000000E0,9.164999962E0,1.660950065E0
1.729397271E0,-8.505000174E-2,1.014900017E1,1.912950039E0
1.731904038E0,-1.189500093E-1,1.056300068E1,2.004000187E0
1.734411961E0,-1.069500074E-1,9.955050468E0,2.001000166E0
1.736918733E0,1.950000064E-3,9.037950516E0,1.960050106E0
1.739424887E0,1.339500099E-1,8.686050415E0,1.984050035E0
1.741931654E0,1.939500123E-1,9.301050186E0,2.038950205E0
1.744439346E0,2.029500157E-1,1.024695015E1,2.056050062E0
1.746946218E0,1.360500008E-1,1.065705013E1,1.813950062E0
1.749452295E0,3.299999982E-2,1.013505077E1,1.479000092E0
1.751959062E0,-5.205000192E-2,9.177000046E0,1.257000089E0
1.754466765E0,-4.500000179E-2,8.571000099E0,1.096050024E0
1.756973613E0,-1.050000042E-1,8.893950462E0,1.381050110E0
1.759479714E0,-1.380000114E-1,9.898050308E0,1.941000104E0
1.761986481E0,-6.105000153E-2,1.056105042E1,2.116050005E0
1.764494183E0,-9.000000358E-2,1.043205070E1,2.170950174E0
1.767000955E0,-4.005000368E-2,9.625050545E0,2.229000092E0
1.769507108E0,5.205000192E-2,8.827050209E0,1.948050141E0
1.772013953E0,9.300000221E-2,8.800950050E0,1.752000093E0
1.774521645E0,9.300000221E-2,9.577050209E0,1.825950146E0
1.777028416E0,9.795000404E-2,1.031895065E1,1.690050125E0
1.779534493E0,7.200000435E-2,1.035000038E1,1.431000113E0
1.782041337E0,6.405000389E-2,9.663000107E0,1.374000072E0
1.784549030E0,1.050000042E-1,8.872950554E0,1.347000122E0
1.787055801E0,9.795000404E-2,8.859000206E0,1.551000118E0
1.789561955E0,4.305000231E-2,9.673050880E0,1.965000153E0
1.792068722E0,-1.950000064E-3,1.052295017E1,2.241000175E0
1.794576414E0,-8.295000345E-2,1.063800049E1,2.193000078E0
1.797083411E0,-1.549500078E-1,9.838050842E0,2.008050203E0
1.799589334E0,-8.505000174E-2,8.827050209E0,1.762050033E0
1.802096087E0,2.595000155E-2,8.499000549E0,1.656000137E0
1.804603779E0,7.605000585E-2,9.178950310E0,1.800000072E0
1.807110820E0,1.939500123E-1,1.016595078E1,1.920000076E0
1.809616743E0,2.220000178E-1,1.065900040E1,1.812000036E0
1.812123741E0,1.510500014E-1,1.022595024E1,1.668000102E0
1.814631203E0,8.400000632E-2,9.298950195E0,1.527000070E0
1.817138205E0,1.905000024E-2,8.739000320E0,1.399950027E0
1.819644128E0,-1.050000042E-1,9.097949982E0,1.611000061E0
1.822151126E0,-2.070000172E-1,9.967050552E0,1.860000134E0
1.824658818E0,-2.190000117E-1,1.045095062E1,1.828950047E0
1.827165589E0,-2.389500141E-1,1.015395069E1,1.897950053E0
1.829671512E0,-1.549500078E-1,9.310950279E0,2.013000011E0
1.832178534E0,9.795000404E-2,8.689050674E0,1.879050136E0
1.834686227E0,1.990500093E-1,8.992950439E0,1.905000091E0
1.837193011E0,2.580000162E-1,9.912000656E0,2.083050013E0
1.839699165E0,2.419500053E-1,1.065195084E1,1.929000139E0
1.842205932E0,1.200000048E-1,1.055400085E1,1.612950087E0
1.844713624E0,1.695000008E-2,9.663000107E0,1.359000087E0
1.847220472E0,-1.800000109E-2,8.686050415E0,1.102950096E0
1.849726564E0,-4.500000179E-2,8.557050705E0,1.209000111E0
1.852233332E0,-6.900000572E-2,9.397050858E0,1.702050090E0
1.854741048E0,-2.295000106E-2,1.040805054E1,2.097000122E0
1.857247896E0,-1.395000052E-2,1.068105030E1,2.275950193E0
1.859753973E0,-2.295000106E-2,9.993000031E0,2.299950123E0
1.862260817E0,8.595000207E-2,9.043050766E0,2.104050159E0
1.864768509E0,1.080000028E-1,8.787000656E0,1.909950137E0
1.867275281E0,5.700000376E-2,9.364050865E0,1.879050136E0
1.869781358E0,7.905000448E-2,1.011795044E1,1.684950113E0
1.872288202E0,2.400000021E-2,1.024695015E1,1.402950048E0
1.874795894E0,-1.800000109E-2,9.706050873E0,1.309050083E0
1.877302896E0,-1.950000064E-3,9.060000420E0,1.383000016E0
1.879808814E0,4.305000231E-2,8.923050880E0,1.498050094E0
1.882315812E0,9.000000544E-3,9.541050911E0,1.915050149E0
1.884823269E0,-2.100000158E-2,1.032105064E1,2.161950111E0
1.887330271E0,-9.000000358E-2,1.053000069E1,2.092050076E0
1.889836194E0,-1.909500062E-1,1.003695011E1,2.049000025E0
1.892343202E0,-1.620000005E-1,9.178950310E0,1.936050057E0
1.894850663E0,-2.100000158E-2,8.598000526E0,1.627950072E0
1.897357655E0,3.600000218E-2,8.866050720E0,1.642050028E0
1.899863578E0,1.339500099E-1,9.819000244E0,1.879050136E0
1.902370576E0,2.220000178E-1,1.060605049E1,1.864950061E0
1.904878038E0,2.320500165E-1,1.057305050E1,1.696950078E0
1.907385040E0,1.770000011E-1,9.706050873E0,1.575000048E0
1.909891194E0,1.789500117E-1,8.842050552E0,1.423950076E0
1.912397961E0,5.700000376E-2,8.844000816E0,1.537050128E0
1.914905653E0,-9.000000358E-2,9.663000107E0,1.822050095E0
1.917412502E0,-1.309500039E-1,1.044795036E1,1.963050127E0
1.919918578E0,-1.759500057E-1,1.039800072E1,1.933950067E0
1.922425365E0,-1.620000005E-1,9.519000053E0,1.944000125E0
1.924933057E0,-1.950000064E-3,8.739000320E0,1.936050057E0
1.927439905E0,1.410000026E-1,8.827050209E0,1.989000082E0
1.929945982E0,1.990500093E-1,9.694050789E0,2.065950155E0
1.932452850E0,2.200500071E-1,1.051500034E1,1.987050056E0
1.934960466E0,1.270500124E-1,1.053495026E1,1.675950050E0
1.937467314E0,-3.795000166E-2,9.796950340E0,1.417050123E0
1.939973391E0,-7.605000585E-2,8.868000031E0,1.192050099E0
1.942480235E0,-9.705000371E-2,8.583000183E0,1.122000098E0
1.944987927E0,-1.810500026E-1,9.222000122E0,1.594050050E0
1.947494698E0,-1.639500111E-1,1.017495060E1,2.025000095E0
1.950000852E0,-8.805000782E-2,1.065195084E1,2.134950161E0
1.952507620E0,-1.020000055E-1,1.029795074E1,2.278950214E0
1.955015312E0,-9.000000544E-3,9.328050613E0,2.169000149E0
1.957522097E0,1.099500060E-1,8.622000694E0,1.804950118E0
1.960028251E0,1.530000120E-1,8.932950020E0,1.777950048E0
1.962535018E0,1.240500063E-1,9.859050751E0,1.825950146E0
1.965042730E0,1.309500039E-1,1.049100018E1,1.558050036E0
1.967549732E0,7.395000011E-2,1.026900005E1,1.419000030E0
1.970055670E0,5.205000192E-2,9.373050690E0,1.431000113E0
1.972562437E0,1.240500063E-1,8.740950584E0,1.407000065E0
1.975070110E0,1.030500084E-1,9.040950775E0,1.663950086E0
1.977577102E0,4.995000362E-2,9.981000900E0,2.065950155E0
1.980083025E0,4.950000439E-3,1.066095066E1,2.193000078E0
1.982590023E0,-1.069500074E-1,1.041495037E1,2.176050186E0
1.985097716E0,-1.429500133E-1,9.436050415E0,2.004000187E0
1.987604564E0,-4.005000368E-2,8.631000519E0,1.743000031E0
1.990110410E0,5.505000427E-2,8.723999977E0,1.704000115E0
1.992617408E0,1.170000061E-1,9.558000565E0,1.849950075E0
1.995125100E0,1.909500062E-1,1.042695045E1,1.869000077E0
1.997631871E0,1.650000066E-1,1.054200077E1,1.750050068E0
2.000138025E0,1.099500060E-1,9.874050140E0,1.582050085E0
2.002644783E0,4.800000042E-2,9.021000862E0,1.446000099E0
2.005152476E0,4.950000439E-3,8.824950218E0,1.441050053E0
2.007659324E0,-1.639500111E-1,9.478950500E0,1.731000066E0
2.010165410E0,-2.119500041E-1,1.023495007E1,1.903050065E0
2.012672177E0,-1.980000138E-1,1.035705090E1,1.855050087E0
2.015179951E0,-2.190000117E-1,9.763950348E0,1.968000054E0
2.017686689E0,-4.905000329E-2,8.968950272E0,2.023050070E0
2.020192766E0,1.339500099E-1,8.716950417E0,1.893000126E0
2.022699610E0,2.110500038E-1,9.402000427E0,1.975050092E0
2.025207302E0,2.440500110E-1,1.032105064E1,2.071050167E0
2.027714073E0,2.080500126E-1,1.064205074E1,1.765950084E0
2.030220227E0,1.219500080E-1,1.013205051E1,1.462050080E0
2.032726994E0,5.505000427E-2,9.160050392E0,1.230000019E0
2.035234687E0,4.500000179E-2,8.595000267E0,1.113000035E0
2.037741458E0,-2.805000171E-2,9.012000084E0,1.459950089E0
2.040247612E0,-5.400000140E-2,9.948000908E0,1.968000054E0
2.042754379E0,-4.200000316E-2,1.065705013E1,2.185050011E0
2.045262043E0,-5.400000140E-2,1.038795090E1,2.221050024E0
2.047769045E0,-1.950000064E-3,9.442950249E0,2.097000122E0
2.050274968E0,7.200000435E-2,8.760000229E0,1.944000125E0
2.052781986E0,8.595000207E-2,8.971050262E0,1.957950115E0
2.055289448E0,9.600000083E-2,9.780000687E0,1.893000126E0
2.057796450E0,1.050000042E-1,1.036695004E1,1.683000088E0
2.060302344E0,5.205000192E-2,1.013205051E1,1.371000051E0
2.062809342E0,2.100000158E-2,9.381000519E0,1.314000010E0
2.065317034E0,2.595000155E-2,8.794050217E0,1.371000051E0
2.067823806E0,3.795000166E-2,9.016950607E0,1.587000132E0
2.070329959E0,-4.905000329E-2,9.868950844E0,2.011049986E0
2.072836727E0,-1.140000075E-1,1.060905075E1,2.206950188E0
2.075344419E0,-1.549500078E-1,1.053705025E1,2.047049999E0
2.077851190E0,-2.530499995E-1,9.730050087E0,2.001000166E0
2.080357344E0,-1.240500063E-1,8.788949966E0,1.765950084E0
2.082864111E0,3.105000220E-2,8.479949951E0,1.543950081E0
2.085371804E0,1.219500080E-1,9.130949974E0,1.776000142E0
2.087878652E0,2.320500165E-1,1.021605015E1,2.001000166E0
2.090384719E0,2.779500186E-1,1.076205063E1,1.867050052E0
2.092891563E0,2.490000129E-1,1.033800030E1,1.740000129E0
2.095399178E0,2.179500163E-1,9.349050522E0,1.528950095E0
2.097906012E0,1.360500008E-1,8.686050415E0,1.339950085E0
2.100412089E0,-2.595000155E-2,9.031050682E0,1.534050107E0
2.102918929E0,-1.429500133E-1,9.936000824E0,1.807050109E0
2.105426621E0,-1.720500141E-1,1.053195095E1,1.932000041E0
2.107933392E0,-1.740000099E-1,1.016805077E1,1.956000090E0
2.110439488E0,-9.300000221E-2,9.244050026E0,1.953000069E0
2.112946317E0,8.805000782E-2,8.710050583E0,1.941000104E0
2.115454009E0,1.909500062E-1,9.139050484E0,2.068050146E0
2.117960781E0,2.269500047E-1,1.004895020E1,2.089950085E0
2.120466935E0,2.010000050E-1,1.057995033E1,1.867050052E0
2.122973702E0,7.605000585E-2,1.026600075E1,1.498050094E0
2.125481394E0,-2.295000106E-2,9.394950867E0,1.314000010E0
2.127988396E0,-7.095000148E-2,8.674050331E0,1.134000063E0
2.130494319E0,-1.140000075E-1,8.799000740E0,1.273050070E0
2.133001086E0,-1.500000060E-1,9.640950203E0,1.824000120E0
2.135508779E0,-9.495000541E-2,1.045800018E1,2.109000206E0
2.138015767E0,-8.295000345E-2,1.053900051E1,2.170950174E0
2.140521690E0,-7.605000585E-2,9.880950928E0,2.250000000E0
2.143028688E0,4.095000029E-2,8.980950356E0,2.013000011E0
2.145536139E0,1.030500084E-1,8.689050674E0,1.732950091E0
2.148043141E0,1.219500080E-1,9.325050354E0,1.798050046E0
2.150549064E0,1.360500008E-1,1.018695068E1,1.774050117E0
2.153056081E0,1.270500124E-1,1.050105095E1,1.501050115E0
2.155563774E0,9.600000083E-2,9.979050636E0,1.375950098E0
2.158070622E0,1.200000048E-1,9.084000587E0,1.375950098E0
2.160576709E0,1.630500108E-1,8.716950417E0,1.438050032E0
2.163083476E0,9.795000404E-2,9.321000099E0,1.807050109E0
2.165591168E0,7.050000131E-3,1.026195049E1,2.130000114E0
2.168098017E0,-8.295000345E-2,1.070505047E1,2.218950033E0
2.170604094E0,-1.860000044E-1,1.014900017E1,2.121000051E0
2.173110938E0,-1.519500017E-1,9.096000671E0,1.876950145E0
2.175618553E0,-2.100000158E-2,8.527950287E0,1.668000102E0
2.178125401E0,3.795000166E-2,8.941950798E0,1.788000107E0
2.180631478E0,1.480500102E-1,9.900000572E0,1.908000112E0
2.183138245E0,2.200500071E-1,1.054905033E1,1.860000134E0
2.185646020E0,1.909500062E-1,1.038795090E1,1.680000067E0
2.188152791E0,1.339500099E-1,9.553050041E0,1.552950025E0
2.190658945E0,7.605000585E-2,8.881950378E0,1.414950013E0
2.193165697E0,-3.495000303E-2,8.989950180E0,1.531950116E0
2.195673389E0,-1.960500032E-1,9.778050423E0,1.849950075E0
2.198180176E0,-2.190000117E-1,1.034100056E1,1.885950089E0
2.200686329E0,-2.670000196E-1,1.023495007E1,1.825950146E0
2.203193097E0,-2.170500159E-1,9.522000313E0,2.004000187E0
2.205700822E0,-1.095000096E-2,8.860950470E0,1.956000090E0
2.208207824E0,1.390500069E-1,8.842050552E0,1.873950124E0
2.210713722E0,2.539499998E-1,9.595950127E0,2.026950121E0
2.213220720E0,3.040500283E-1,1.044105053E1,2.026950121E0
2.215728182E0,2.250000089E-1,1.063305092E1,1.720950127E0
2.218235184E0,1.290000081E-1,9.984000206E0,1.465050101E0
2.220741107E0,7.200000435E-2,9.009000778E0,1.161000013E0
2.223248105E0,2.895000204E-2,8.527950287E0,1.117950082E0
2.225755797E0,-6.900000572E-2,9.100049973E0,1.516950130E0
2.228262568E0,-8.295000345E-2,1.010805035E1,1.968000054E0
2.230768491E0,-1.020000055E-1,1.070505047E1,2.161950111E0
2.233275489E0,-1.120500043E-1,1.029300022E1,2.236050129E0
2.235783182E0,-3.795000166E-2,9.265950203E0,2.118000031E0
2.238289953E0,8.805000782E-2,8.704950333E0,1.956000090E0
2.240796107E0,9.795000404E-2,9.031050682E0,1.909950137E0
2.243302879E0,1.270500124E-1,9.871050835E0,1.837950110E0
2.245810571E0,1.240500063E-1,1.036500072E1,1.585050106E0
2.248317419E0,5.205000192E-2,1.007505035E1,1.419000030E0
2.250823520E0,1.395000052E-2,9.313050270E0,1.429050088E0
2.253330303E0,2.595000155E-2,8.830050468E0,1.402950048E0
2.255837995E0,-1.605000161E-2,9.160050392E0,1.627950072E0
2.258344843E0,-1.120500043E-1,9.993000031E0,2.020050049E0
2.260850920E0,-1.069500074E-1,1.051800060E1,2.073000193E0
2.263357764E0,-2.149500102E-1,1.035300064E1,2.013000011E0
2.265865380E0,-2.269500047E-1,9.541050911E0,1.989000082E0
2.268372228E0,-5.205000192E-2,8.686050415E0,1.744950056E0
2.270878305E0,8.100000024E-2,8.602050781E0,1.618050098E0
2.273385149E0,2.110500038E-1,9.430950165E0,1.909950137E0
2.275892841E0,2.779500186E-1,1.042395020E1,1.987050056E0
2.278399612E0,2.869500220E-1,1.073595047E1,1.813950062E0
2.280905689E0,2.179500163E-1,1.010595036E1,1.680000067E0
2.283412518E0,1.669500023E-1,9.096000671E0,1.471950054E0
2.285920211E0,8.595000207E-2,8.722050667E0,1.399950027E0
2.288426973E0,-8.295000345E-2,9.321000099E0,1.671000123E0
2.290933127E0,-1.549500078E-1,1.018005085E1,1.872000098E0
2.293439894E0,-1.980000138E-1,1.045605087E1,1.881000042E0
2.295947817E0,-2.149500102E-1,9.826050758E0,1.920000076E0
2.298454588E0,-9.000000358E-2,9.013950348E0,1.932000041E0
2.300960511E0,9.795000404E-2,8.820000648E0,2.004000187E0
2.303467509E0,1.699500084E-1,9.427950859E0,2.080049992E0
2.305974971E0,2.419500053E-1,1.021605015E1,2.037000179E0
2.308481973E0,2.059500068E-1,1.049895096E1,1.776000142E0
2.310987896E0,4.995000362E-2,1.004595089E1,1.486050129E0
2.313494884E0,-2.805000171E-2,9.232050896E0,1.314000010E0
2.316002346E0,-3.795000166E-2,8.680950165E0,1.168050051E0
2.318509415E0,-1.210500076E-1,8.926050186E0,1.402950048E0
2.321015261E0,-1.740000099E-1,9.782999992E0,1.927050114E0
2.323522245E0,-1.330500096E-1,1.048200035E1,2.106000185E0
2.326029937E0,-1.309500039E-1,1.047195053E1,2.149950027E0
2.328536770E0,-8.505000174E-2,9.687000275E0,2.176050186E0
2.331042847E0,5.205000192E-2,8.791950226E0,1.896000147E0
2.333549691E0,8.805000782E-2,8.716950417E0,1.723050117E0
2.336057307E0,1.290000081E-1,9.526950836E0,1.855050087E0
2.338564155E0,1.669500023E-1,1.036500072E1,1.747050047E0
2.341070232E0,1.990500093E-1,1.043595028E1,1.462050080E0
2.343577076E0,1.339500099E-1,9.751950264E0,1.447950125E0
2.346084768E0,1.429500133E-1,8.929950714E0,1.447950125E0
2.348591539E0,1.290000081E-1,8.830050468E0,1.515000105E0
2.351097616E0,5.505000427E-2,9.622050285E0,1.900950074E0
2.353604437E0,-6.900000572E-2,1.044600010E1,2.176050186E0
2.356112129E0,-1.429500133E-1,1.058505058E1,2.142000198E0
2.358618900E0,-2.070000172E-1,9.819000244E0,2.025000095E0
2.361125050E0,-1.210500076E-1,8.863050461E0,1.783050060E0
2.363631817E0,2.400000021E-2,8.562000275E0,1.656000137E0
2.366139509E0,9.600000083E-2,9.177000046E0,1.872000098E0
2.368646511E0,2.200500071E-1,1.012800026E1,2.011049986E0
2.371152420E0,2.539499998E-1,1.062300014E1,1.861950040E0
2.373659187E0,1.720500141E-1,1.022595024E1,1.636950135E0
2.376166884E0,1.080000028E-1,9.346950531E0,1.489050031E0
2.378673886E0,2.400000021E-2,8.775000572E0,1.345050097E0
2.381179809E0,-1.380000114E-1,9.079050064E0,1.549050093E0
2.383686807E0,-2.890500128E-1,9.949950218E0,1.861950040E0
2.386194500E0,-2.719500065E-1,1.048200035E1,1.849950075E0
2.388701271E0,-2.719500065E-1,1.016805077E1,1.876950145E0
2.391207194E0,-1.549500078E-1,9.297000885E0,1.993950129E0
2.393714192E0,1.050000042E-1,8.653050423E0,1.888950109E0
2.396221884E0,2.220000178E-1,8.952000618E0,1.929000139E0
2.398728655E0,2.850000262E-1,9.904950142E0,2.125950098E0
2.401234593E0,3.010500073E-1,1.062795067E1,2.011049986E0
2.403741591E0,1.870500147E-1,1.053705025E1,1.659000039E0
2.406249283E0,1.000500023E-1,9.658050537E0,1.375950098E0
2.408756035E0,4.500000179E-2,8.760000229E0,1.089000106E0
2.411262189E0,-1.605000161E-2,8.665050507E0,1.150950074E0
2.413768923E0,-1.069500074E-1,9.418950081E0,1.654050112E0
2.416276615E0,-1.120500043E-1,1.034505081E1,2.059050083E0
2.418783450E0,-9.300000221E-2,1.063305092E1,2.194950104E0
2.421289527E0,-7.304999977E-2,9.937950134E0,2.170950174E0
2.423796294E0,3.600000218E-2,8.997000694E0,1.992000103E0
2.426303986E0,1.360500008E-1,8.715000153E0,1.951050043E0
2.428810834E0,1.150500029E-1,9.345000267E0,1.981950045E0
2.431316988E0,1.099500060E-1,1.016805077E1,1.897950053E0
2.433823755E0,1.240500063E-1,1.039305019E1,1.570050120E0
2.436331448E0,6.195000187E-2,9.820950508E0,1.345050097E0
2.438838219E0,4.500000179E-2,9.031050682E0,1.363950014E0
2.441344373E0,4.800000042E-2,8.716950417E0,1.399950027E0
2.443851140E0,-1.605000161E-2,9.354000092E0,1.759050131E0
2.446358850E0,-9.705000371E-2,1.029495049E1,2.154000044E0
2.448865622E0,-1.500000060E-1,1.068495083E1,2.118000031E0
2.451371775E0,-2.359500080E-1,1.018305016E1,1.969950080E0
2.453878543E0,-1.960500032E-1,9.205950737E0,1.849950075E0
2.456386235E0,7.050000131E-3,8.523000717E0,1.564950109E0
2.458893020E0,1.050000042E-1,8.716950417E0,1.623000026E0
2.461399174E0,2.149500102E-1,9.715950012E0,1.965000153E0
2.463906172E0,2.989500165E-1,1.061100006E1,2.023050070E0
2.466413634E0,3.180000186E-1,1.070895004E1,1.837950110E0
2.468920636E0,2.659500241E-1,9.892950058E0,1.635000110E0
2.471426559E0,1.840500087E-1,8.926050186E0,1.378950119E0
2.473933567E0,4.500000179E-2,8.703000069E0,1.390950084E0
2.476441259E0,-1.069500074E-1,9.436050415E0,1.692000031E0
2.478948044E0,-1.909500062E-1,1.032105064E1,1.876950145E0
2.481453967E0,-2.410500050E-1,1.045995045E1,1.896000147E0
2.483960946E0,-2.170500159E-1,9.724950790E0,1.905000091E0
2.486468639E0,-4.695000127E-2,8.899050713E0,1.924950123E0
2.488975487E0,1.360500008E-1,8.755949974E0,1.996050119E0
2.491481564E0,2.179500163E-1,9.487950325E0,2.104050159E0
2.493988331E0,3.010500073E-1,1.032405090E1,2.071050167E0
2.496496023E0,2.370000184E-1,1.057305050E1,1.789950132E0
2.499002871E0,9.105000645E-2,9.985950470E0,1.501050115E0
2.501508948E0,-2.805000171E-2,9.115050316E0,1.306950092E0
2.504015793E0,-4.905000329E-2,8.626049995E0,1.102950096E0
2.506523408E0,-1.620000005E-1,9.025950432E0,1.435950041E0
2.509030256E0,-2.119500041E-1,9.937950134E0,1.920000076E0
2.511536323E0,-1.429500133E-1,1.052295017E1,2.053950071E0
2.514043167E0,-1.549500078E-1,1.033605003E1,2.164050102E0
2.516550869E0,-6.405000389E-2,9.502950668E0,2.188050032E0
2.519057641E0,1.150500029E-1,8.775000572E0,1.893000126E0
2.521563795E0,1.480500102E-1,8.872950554E0,1.792950034E0
2.524070562E0,1.960500032E-1,9.651000023E0,1.888950109E0
2.526578240E0,2.149500102E-1,1.036500072E1,1.668000102E0
2.529085242E0,1.600500047E-1,1.032105064E1,1.459950089E0
2.531591165E0,9.300000221E-2,9.634050369E0,1.435950041E0
2.534097932E0,1.050000042E-1,8.904000282E0,1.378950119E0
2.536605625E0,7.605000585E-2,8.956950188E0,1.531950116E0
2.539112627E0,-1.095000096E-2,9.687000275E0,1.891050100E0
2.541618545E0,-6.105000153E-2,1.043400097E1,2.116050005E0
2.544125543E0,-1.480500102E-1,1.048905087E1,2.145000219E0
2.546633010E0,-2.190000117E-1,9.732000351E0,2.014950037E0
2.549140012E0,-9.495000541E-2,8.875050545E0,1.771050096E0
2.551645935E0,5.205000192E-2,8.668950081E0,1.728000045E0
2.554152934E0,1.120500043E-1,9.304050446E0,1.903050065E0
2.556660626E0,2.220000178E-1,1.017105007E1,1.924950123E0
2.559167397E0,2.580000162E-1,1.055100060E1,1.768950105E0
2.561673320E0,1.600500047E-1,1.014405060E1,1.648950100E0
2.564180318E0,1.000500023E-1,9.309000015E0,1.539000034E0
2.566688010E0,3.105000220E-2,8.808000565E0,1.371000051E0
2.569194858E0,-1.330500096E-1,9.148050308E0,1.588950038E0
2.571700935E0,-2.170500159E-1,9.969000816E0,1.864950061E0
2.574207808E0,-2.430000156E-1,1.038600063E1,1.807050109E0
2.576715423E0,-2.719500065E-1,1.011105061E1,1.915050149E0
2.579222271E0,-1.480500102E-1,9.334950447E0,2.032050133E0
2.581728363E0,9.105000645E-2,8.740950584E0,1.896000147E0
2.584235130E0,2.320500165E-1,8.973000526E0,1.921950102E0
2.586742837E0,3.160500228E-1,9.892950058E0,2.061000109E0
2.589249685E0,3.090000153E-1,1.062105083E1,1.879050136E0
2.591755762E0,1.870500147E-1,1.052505016E1,1.608000040E0
2.594262606E0,5.505000427E-2,9.655950546E0,1.414950013E0
2.596770221E0,2.400000021E-2,8.755949974E0,1.144050002E0
2.599277070E0,-4.200000316E-2,8.653050423E0,1.273050070E0
2.601783223E0,-1.120500043E-1,9.450000763E0,1.696950078E0
2.604289991E0,-1.069500074E-1,1.036005020E1,2.020050049E0
2.606797683E0,-1.140000075E-1,1.060905075E1,2.190000057E0
2.609304685E0,-1.090500057E-1,9.886050224E0,2.218950033E0
2.611810608E0,9.000000544E-3,9.001950264E0,2.056050062E0
2.614317592E0,1.150500029E-1,8.758049965E0,1.941000104E0
2.616825054E0,1.290000081E-1,9.361050606E0,1.929000139E0
2.619331825E0,1.699500084E-1,1.015905094E1,1.804950118E0
2.621838316E0,1.650000066E-1,1.032105064E1,1.537050128E0
2.624344911E0,7.395000011E-2,9.802050591E0,1.423950076E0
2.626852673E0,3.600000218E-2,9.120000839E0,1.455000043E0
2.629359444E0,4.800000042E-2,8.899050713E0,1.467000127E0
2.631865367E0,-5.700000376E-2,9.438000679E0,1.755000114E0
2.634372365E0,-1.429500133E-1,1.025895023E1,2.077950001E0
2.636880058E0,-1.860000044E-1,1.053900051E1,2.026950121E0
2.639386829E0,-2.550000250E-1,1.001700020E1,1.953000069E0
2.641892983E0,-1.840500087E-1,9.130949974E0,1.905000091E0
2.644399750E0,2.595000155E-2,8.546999931E0,1.668000102E0
2.646907442E0,1.480500102E-1,8.854050636E0,1.750050068E0
2.649414290E0,2.509500086E-1,9.886050224E0,2.050950050E0
2.651920367E0,3.109500110E-1,1.070505047E1,2.001000166E0
2.654427135E0,2.820000052E-1,1.061595058E1,1.768950105E0
2.656934827E0,1.990500093E-1,9.682050705E0,1.527000070E0
2.659441675E0,1.219500080E-1,8.794050217E0,1.312050104E0
2.661947752E0,-3.299999982E-2,8.791950226E0,1.398000121E0
2.664454596E0,-1.570500135E-1,9.622050285E0,1.719000101E0
2.666962212E0,-2.149500102E-1,1.044405079E1,1.905000091E0
2.669469075E0,-2.430000156E-1,1.042395020E1,1.921950102E0
2.671975152E0,-1.789500117E-1,9.601050377E0,1.933950067E0
2.674481991E0,9.000000544E-3,8.788949966E0,1.981950045E0
2.676989683E0,2.059500068E-1,8.788949966E0,2.038950205E0
2.679496454E0,2.800500095E-1,9.579000473E0,2.137950182E0
2.682002540E0,3.160500228E-1,1.042005062E1,2.071050167E0
2.684509384E0,1.990500093E-1,1.062795067E1,1.777950048E0
2.687017077E0,1.905000024E-2,9.958050728E0,1.498050094E0
2.689523848E0,-4.695000127E-2,9.025950432E0,1.209000111E0
2.692030002E0,-9.000000358E-2,8.545050621E0,1.066950083E0
2.694536769E0,-1.909500062E-1,9.024000168E0,1.450050116E0
2.697044461E0,-1.789500117E-1,1.000800037E1,1.933950067E0
2.699551463E0,-1.279500127E-1,1.066605091E1,2.110949993E0
2.702057386E0,-1.240500063E-1,1.038795090E1,2.218950033E0
2.704564403E0,-2.805000171E-2,9.403950691E0,2.154000044E0
2.707072096E0,1.339500099E-1,8.655000687E0,1.843050122E0
2.709578867E0,1.459500045E-1,8.884950638E0,1.843050122E0
2.712085021E0,1.699500084E-1,9.819000244E0,1.933950067E0
2.714591788E0,1.669500023E-1,1.046805096E1,1.702050090E0
2.717099480E0,1.410000026E-1,1.027605057E1,1.423950076E0
2.719606252E0,9.105000645E-2,9.450000763E0,1.390950084E0
2.722112406E0,1.080000028E-1,8.808000565E0,1.387950063E0
2.724619168E0,2.895000204E-2,9.060000420E0,1.596000075E0
2.727126855E0,-3.795000166E-2,9.892950058E0,1.956000090E0
2.729633626E0,-1.069500074E-1,1.053000069E1,2.098950148E0
2.732139780E0,-1.570500135E-1,1.038105011E1,2.073000193E0
2.734646547E0,-1.860000044E-1,9.541050911E0,1.977000117E0
2.737154240E0,-6.599999964E-2,8.763000488E0,1.759050131E0
2.739661088E0,9.600000083E-2,8.731950760E0,1.777950048E0
2.742167165E0,1.530000120E-1,9.463950157E0,1.963050127E0
2.744674009E0,2.440500110E-1,1.033305073E1,2.032050133E0
2.747181701E0,2.730000019E-1,1.061100006E1,1.816950083E0
2.749688473E0,1.410000026E-1,1.004100037E1,1.608000040E0
2.752194554E0,9.600000083E-2,9.109950066E0,1.419000030E0
2.754701399E0,-9.000000544E-3,8.686050415E0,1.303950071E0
2.757209014E0,-1.810500026E-1,9.217950821E0,1.618050098E0
2.759715848E0,-2.599500120E-1,1.015905094E1,1.897950053E0
2.762222002E0,-2.650500238E-1,1.056600094E1,1.849950075E0
2.764728773E0,-2.939999998E-1,1.005795002E1,1.939050078E0
2.767236466E0,-1.309500039E-1,9.097949982E0,2.014950037E0
2.769743237E0,1.290000081E-1,8.559000015E0,1.836000085E0
2.772249420E0,2.490000129E-1,9.037950516E0,1.939050078E0
2.774756187E0,3.250500262E-1,1.009200001E1,2.140050173E0
2.777263879E0,3.130500019E-1,1.073595047E1,1.951050043E0
2.779770881E0,1.990500093E-1,1.045305061E1,1.627950072E0
2.782276804E0,8.805000782E-2,9.487950325E0,1.362000108E0
2.784783802E0,7.050000131E-3,8.656949997E0,1.066950083E0
2.787291495E0,-1.020000055E-1,8.731950760E0,1.245000005E0
2.789798266E0,-1.570500135E-1,9.562050819E0,1.716000080E0
2.792304189E0,-1.240500063E-1,1.039800072E1,2.059050083E0
2.794811187E0,-1.170000061E-1,1.049400043E1,2.229000092E0
2.797318855E0,-7.095000148E-2,9.778050423E0,2.169000149E0
2.799825626E0,7.200000435E-2,8.977950096E0,2.023050070E0
2.802331780E0,1.630500108E-1,8.896950722E0,2.011049986E0
2.804838558E0,1.870500147E-1,9.511950493E0,2.032050133E0
2.807346250E0,2.250000089E-1,1.017105007E1,1.788000107E0
2.809853098E0,1.750500053E-1,1.022595024E1,1.450050116E0
2.812359175E0,6.405000389E-2,9.676950455E0,1.351950049E0
2.814865942E0,1.395000052E-2,9.055050850E0,1.422000051E0
2.817373639E0,-2.295000106E-2,8.988000870E0,1.479000092E0
2.819880487E0,-1.020000055E-1,9.618000031E0,1.801950097E0
2.822386545E0,-1.690500081E-1,1.031400013E1,2.080049992E0
2.824893389E0,-1.810500026E-1,1.042395020E1,1.980000138E0
2.827401004E0,-2.340000123E-1,9.883050919E0,1.932000041E0
2.829907852E0,-1.360500008E-1,9.079050064E0,1.888950109E0
2.832413929E0,4.995000362E-2,8.631000519E0,1.695000052E0
2.834920773E0,1.510500014E-1,9.032999992E0,1.810050130E0
2.837428466E0,2.580000162E-1,9.964950562E0,2.050950050E0
2.839935237E0,3.180000186E-1,1.057800007E1,1.888950109E0
2.842441314E0,2.700000107E-1,1.041495037E1,1.647000074E0
2.844948158E0,1.510500014E-1,9.598050117E0,1.515000105E0
2.847455860E0,9.795000404E-2,8.887050629E0,1.383000016E0
2.849962862E0,-4.200000316E-2,8.980950356E0,1.491000056E0
2.852468789E0,-1.740000099E-1,9.682050705E0,1.777950048E0
2.854975557E0,-2.070000172E-1,1.034295082E1,1.852950096E0
2.857483480E0,-2.239500135E-1,1.029300022E1,1.879050136E0
2.859990261E0,-1.620000005E-1,9.507000923E0,1.932000041E0
2.862496184E0,4.800000042E-2,8.812950134E0,1.951050043E0
2.865002984E0,2.080500126E-1,8.932950020E0,2.092050076E0
2.867510673E0,2.680500150E-1,9.711000443E0,2.166000128E0
2.870017675E0,3.250500262E-1,1.043400097E1,1.993950129E0
2.872523598E0,2.110500038E-1,1.052505016E1,1.690050125E0
2.875030596E0,3.299999982E-2,9.820950508E0,1.453050017E0
2.877538288E0,-4.500000179E-2,8.932950020E0,1.228050113E0
2.880045059E0,-1.000500023E-1,8.587950706E0,1.108050108E0
2.882551213E0,-1.810500026E-1,9.154950142E0,1.537050128E0
2.885057980E0,-1.789500117E-1,1.013505077E1,1.977000117E0
2.887565673E0,-1.240500063E-1,1.061400032E1,2.089950085E0
2.890072521E0,-1.380000114E-1,1.026195049E1,2.178000212E0
2.892578598E0,-1.950000064E-3,9.328050613E0,2.130000114E0
2.895085442E0,1.219500080E-1,8.665050507E0,1.843050122E0
2.897593057E0,1.480500102E-1,9.004950523E0,1.864950061E0
2.900099909E0,1.939500123E-1,9.901950836E0,1.932000041E0
2.902605986E0,2.220000178E-1,1.045800018E1,1.671000123E0
2.905112831E0,1.630500108E-1,1.018005085E1,1.426050067E0
2.907620446E0,1.050000042E-1,9.381000519E0,1.410000086E0
2.910127294E0,1.200000048E-1,8.836950302E0,1.386000037E0
2.912633371E0,3.600000218E-2,9.105000496E0,1.654050112E0
2.915140215E0,-7.304999977E-2,9.916950226E0,2.001000166E0
2.917647908E0,-9.705000371E-2,1.054200077E1,2.104050159E0
2.920154679E0,-1.759500057E-1,1.030695057E1,2.023050070E0
2.922660833E0,-1.930500120E-1,9.460050583E0,1.939050078E0
2.925167600E0,-1.605000161E-2,8.746050835E0,1.768950105E0
2.927675292E0,1.150500029E-1,8.806050301E0,1.831050038E0
2.930182294E0,2.059500068E-1,9.570000648E0,1.993950129E0
2.932688217E0,2.869500220E-1,1.034805012E1,1.972050071E0
2.935194970E0,2.749500275E-1,1.050795078E1,1.768950105E0
2.937702663E0,1.770000011E-1,9.922050476E0,1.582050085E0
2.940209665E0,7.200000435E-2,9.088050842E0,1.431000113E0
2.942715559E0,-5.205000192E-2,8.847000122E0,1.363950014E0
2.945222557E0,-2.389500141E-1,9.364050865E0,1.656000137E0
2.947730018E0,-2.869500220E-1,1.013895035E1,1.855050087E0
2.950237020E0,-2.719500065E-1,1.041000080E1,1.792950034E0
2.952742944E0,-2.580000162E-1,9.888000488E0,1.915050149E0
2.955249942E0,-4.005000368E-2,9.048000336E0,2.005950212E0
2.957757615E0,1.789500117E-1,8.692950249E0,1.881000042E0
2.960264386E0,2.779500186E-1,9.249000549E0,2.050950050E0
2.962770540E0,3.420000076E-1,1.022100067E1,2.202000141E0
2.965277307E0,3.090000153E-1,1.069995022E1,1.872000098E0
2.967784999E0,1.459500045E-1,1.031700039E1,1.551000118E0
2.970291771E0,2.400000021E-2,9.349050522E0,1.264050007E0
2.972797925E0,-1.095000096E-2,8.586000443E0,1.036050081E0
2.975304692E0,-9.495000541E-2,8.760000229E0,1.270950079E0
2.977812384E0,-1.570500135E-1,9.715950012E0,1.810050130E0
2.980319232E0,-1.140000075E-1,1.057500076E1,2.134950161E0
2.982825328E0,-8.100000024E-2,1.055400085E1,2.226000071E0
2.985332172E0,-1.395000052E-2,9.673050880E0,2.157000065E0
2.987839798E0,1.170000061E-1,8.855999947E0,2.001000166E0
2.990346646E0,1.770000011E-1,8.851050377E0,1.996050119E0
2.992852723E0,1.669500023E-1,9.601050377E0,1.992000103E0
2.995359596E0,1.939500123E-1,1.031205082E1,1.776000142E0
2.997867288E0,1.099500060E-1,1.031895065E1,1.438050032E0
3.000374060E0,1.395000052E-2,9.627000809E0,1.357050061E0
3.002880174E0,2.595000155E-2,8.902050018E0,1.342950106E0
3.005387019E0,-6.000000052E-3,8.855999947E0,1.414950013E0
3.007894711E0,-1.000500023E-1,9.625050545E0,1.843050122E0
3.010401463E0,-1.500000060E-1,1.044795036E1,2.149950027E0
3.012907617E0,-1.759500057E-1,1.055595016E1,2.071050167E0
3.015414615E0,-2.239500135E-1,9.876000404E0,2.005950212E0
3.017922307E0,-1.050000042E-1,8.920950890E0,1.837950110E0
3.020429079E0,6.405000389E-2,8.479949951E0,1.588950038E0
3.022935002E0,1.630500108E-1,9.061950684E0,1.836000085E0
3.025441769E0,2.389500141E-1,1.010100079E1,2.071050167E0
3.027949692E0,2.899500132E-1,1.074795055E1,1.939050078E0
3.030456463E0,2.560500205E-1,1.044600010E1,1.716000080E0
3.032962617E0,1.579500139E-1,9.457050323E0,1.483950019E0
3.035469384E0,1.080000028E-1,8.698050499E0,1.273050070E0
3.037977077E0,-6.405000389E-2,8.926050186E0,1.467000127E0
3.040483819E0,-1.999500096E-1,9.802050591E0,1.777950048E0
3.042989973E0,-2.190000117E-1,1.047900009E1,1.879050136E0
3.045496754E0,-2.220000178E-1,1.024200058E1,1.893000126E0
3.048004446E0,-1.240500063E-1,9.370950699E0,1.951050043E0
3.050511294E0,7.395000011E-2,8.772000313E0,1.957950115E0
3.053017352E0,2.200500071E-1,8.992950439E0,2.077950001E0
3.055524192E0,2.939999998E-1,9.814050674E0,2.161950111E0
3.058031807E0,3.040500283E-1,1.049100018E1,2.026950121E0
3.060538655E0,1.770000011E-1,1.043205070E1,1.663950086E0
3.063044732E0,1.695000008E-2,9.687000275E0,1.407000065E0
3.065551576E0,-9.000000358E-2,8.878050804E0,1.165950060E0
3.068059192E0,-1.450500041E-1,8.635950089E0,1.096050024E0
3.070566040E0,-2.190000117E-1,9.277950287E0,1.587000132E0
3.073072117E0,-2.070000172E-1,1.023000050E1,2.008050203E0
3.075578961E0,-1.429500133E-1,1.062600040E1,2.106000185E0
3.078086653E0,-1.170000061E-1,1.014195061E1,2.180999994E0
3.080593405E0,3.105000220E-2,9.190950394E0,2.113950014E0
3.083099559E0,1.549500078E-1,8.631000519E0,1.861950040E0
3.085606321E0,1.870500147E-1,9.093000412E0,1.920000076E0
3.088114014E0,2.059500068E-1,1.005600071E1,1.948050141E0
3.090621011E0,1.650000066E-1,1.055805016E1,1.632000089E0
3.093126934E0,9.105000645E-2,1.017795086E1,1.431000113E0
3.095633697E0,6.195000187E-2,9.237000465E0,1.369050026E0
3.098141389E0,8.595000207E-2,8.689050674E0,1.312050104E0
3.100648391E0,2.595000155E-2,9.084000587E0,1.596000075E0
3.103154315E0,-4.200000316E-2,1.005600071E1,2.005950212E0
3.105661313E0,-9.705000371E-2,1.065705013E1,2.182950020E0
3.108168774E0,-1.639500111E-1,1.038600063E1,2.113950014E0
3.110675776E0,-1.210500076E-1,9.373050690E0,1.920000076E0
3.113181699E0,3.795000166E-2,8.623950005E0,1.765950084E0
3.115688697E0,1.270500124E-1,8.743950844E0,1.812000036E0
3.118196389E0,1.939500123E-1,9.639000893E0,1.968000054E0
3.120703161E0,2.659500241E-1,1.051305008E1,1.980000138E0
3.123209329E0,1.840500087E-1,1.064700031E1,1.776000142E0
3.125716096E0,7.605000585E-2,9.850050926E0,1.558050036E0
3.128223802E0,1.200000010E-2,8.911050797E0,1.345050097E0
3.130730573E0,-7.304999977E-2,8.662050247E0,1.278000116E0
3.133236674E0,-2.269500047E-1,9.388050079E0,1.668000102E0
3.135743441E0,-2.629500031E-1,1.030005074E1,1.921950102E0
3.138251134E0,-2.340000123E-1,1.048695087E1,1.873950124E0
3.140757982E0,-2.119500041E-1,9.876000404E0,2.013000011E0
3.143264059E0,-3.299999982E-2,8.932950020E0,2.013000011E0
3.145770903E0,1.819500029E-1,8.644950867E0,1.848000050E0
3.148278595E0,2.779500186E-1,9.316050529E0,2.011049986E0
3.150785367E0,2.899500132E-1,1.029300022E1,2.092050076E0
3.153291443E0,2.700000107E-1,1.069500065E1,1.816950083E0
3.155798288E0,1.099500060E-1,1.018500042E1,1.558050036E0
3.158305971E0,0.000000000E0,9.238950729E0,1.261050105E0
3.160812973E0,-2.595000155E-2,8.599950790E0,1.021950006E0
3.163318819E0,-9.300000221E-2,8.911050797E0,1.366950035E0
3.165825653E0,-1.210500076E-1,9.790050507E0,1.872000098E0
3.168333346E0,-8.295000345E-2,1.051995087E1,2.113950014E0
3.170840314E0,-8.100000024E-2,1.042005062E1,2.221050024E0
3.173346237E0,-1.395000052E-2,9.627000809E0,2.157000065E0
3.175853240E0,1.170000061E-1,8.892000198E0,2.020050049E0
3.178360701E0,1.549500078E-1,8.959050179E0,1.960050106E0
3.180867703E0,1.579500139E-1,9.685050011E0,1.933950067E0
3.183373626E0,1.909500062E-1,1.025205040E1,1.699050069E0
3.185880624E0,1.030500084E-1,1.020705032E1,1.378950119E0
3.188388317E0,1.395000052E-2,9.541050911E0,1.330950022E0
3.190895088E0,7.050000131E-3,8.917950630E0,1.386000037E0
3.193401242E0,-2.295000106E-2,9.012000084E0,1.551000118E0
3.195908009E0,-1.240500063E-1,9.771000862E0,1.956000090E0
3.198415701E0,-1.480500102E-1,1.047705078E1,2.098950148E0
3.200922473E0,-2.149500102E-1,1.045605087E1,1.969950080E0
3.203428612E0,-2.629500031E-1,9.718050003E0,1.987050056E0
3.205935380E0,-1.020000055E-1,8.884950638E0,1.879050136E0
3.208443067E0,1.000500023E-1,8.569050789E0,1.654050112E0
3.210949915E0,1.770000011E-1,9.190950394E0,1.831050038E0
3.213455997E0,2.820000052E-1,1.020405006E1,2.038950205E0
3.215962841E0,3.060000241E-1,1.072605038E1,1.897950053E0
3.218470476E0,2.340000123E-1,1.036005020E1,1.672950029E0
3.220977324E0,1.339500099E-1,9.366000175E0,1.431000113E0
3.223483401E0,6.000000238E-2,8.692950249E0,1.302000046E0
3.225990245E0,-1.240500063E-1,9.004950523E0,1.513050079E0
3.228497937E0,-1.930500120E-1,9.889950752E0,1.788000107E0
3.231004708E0,-2.050500065E-1,1.050300026E1,1.876950145E0
3.233510785E0,-1.879500151E-1,1.021395016E1,1.944000125E0
3.236017629E0,-6.105000153E-2,9.306000710E0,1.965000153E0
3.238525322E0,1.390500069E-1,8.731950760E0,2.025000095E0
3.241032093E0,2.800500095E-1,9.079050064E0,2.097000122E0
3.243538247E0,3.130500019E-1,9.948000908E0,2.133000135E0
3.246045019E0,2.869500220E-1,1.057305050E1,1.929000139E0
3.248552711E0,1.050000042E-1,1.035000038E1,1.579950094E0
3.251059727E0,-6.105000153E-2,9.510000229E0,1.326000094E0
3.253565650E0,-1.120500043E-1,8.755949974E0,1.125000000E0
3.256072418E0,-1.690500081E-1,8.689050674E0,1.170000076E0
3.258580115E0,-2.290500104E-1,9.471000671E0,1.702050090E0
3.261087117E0,-1.690500081E-1,1.031700039E1,2.041949987E0
3.263593045E0,-9.300000221E-2,1.053705025E1,2.113950014E0
3.266100043E0,-5.700000376E-2,9.969000816E0,2.236050129E0
3.268607505E0,6.705000252E-2,9.108000755E0,2.137950182E0
3.271114507E0,1.650000066E-1,8.722050667E0,1.876950145E0
3.273620430E0,1.630500108E-1,9.258000374E0,1.900950074E0
3.276127428E0,1.600500047E-1,1.008195019E1,1.869000077E0
3.278635120E0,1.600500047E-1,1.045305061E1,1.539000034E0
3.281141891E0,8.400000632E-2,1.000095081E1,1.351950049E0
3.283648045E0,6.195000187E-2,9.187050819E0,1.339950085E0
3.286154836E0,8.100000024E-2,8.784000397E0,1.363950014E0
3.288662529E0,4.305000231E-2,9.297000885E0,1.732950091E0
3.291169377E0,-1.605000161E-2,1.019205093E1,2.095050097E0
3.293675434E0,-5.205000192E-2,1.062600040E1,2.142000198E0
3.296182201E0,-1.549500078E-1,1.016595078E1,2.074949980E0
3.298689970E0,-9.300000221E-2,9.232050896E0,1.909950137E0
3.301196762E0,4.095000029E-2,8.632950783E0,1.765950084E0
3.303702838E0,1.219500080E-1,8.911050797E0,1.840950131E0
3.306209683E0,1.990500093E-1,9.808950424E0,1.968000054E0
3.308717408E0,2.460000068E-1,1.053900051E1,1.900950074E0
3.311224160E0,1.870500147E-1,1.048695087E1,1.683000088E0
3.313730314E0,8.595000207E-2,9.679950714E0,1.531950116E0
3.316237081E0,4.500000179E-2,8.871000290E0,1.347000122E0
3.318744774E0,-5.700000376E-2,8.818050385E0,1.395000100E0
3.321251545E0,-2.340000123E-1,9.555000305E0,1.774050117E0
3.323757622E0,-2.359500080E-1,1.030905056E1,1.897950053E0
3.326264466E0,-2.430000156E-1,1.041705036E1,1.867050052E0
3.328772158E0,-2.340000123E-1,9.772950172E0,2.020050049E0
3.331279160E0,-1.095000096E-2,8.923050880E0,1.999050140E0
3.333785083E0,1.819500029E-1,8.680950165E0,1.908000112E0
3.336292071E0,2.779500186E-1,9.358950615E0,2.014950037E0
3.338799764E0,3.210000098E-1,1.032600021E1,2.059050083E0
3.341306535E0,2.460000068E-1,1.072095013E1,1.783050060E0
3.343812458E0,1.099500060E-1,1.017105007E1,1.506000042E0
3.346319471E0,7.050000131E-3,9.129000664E0,1.225050092E0
3.348827163E0,-1.950000064E-3,8.502000809E0,1.108050108E0
3.351333948E0,-1.120500043E-1,8.917950630E0,1.417050123E0
3.353840102E0,-1.279500127E-1,9.892950058E0,1.872000098E0
3.356346870E0,-5.400000140E-2,1.063305092E1,2.130000114E0
3.358854562E0,-8.505000174E-2,1.039305019E1,2.241000175E0
3.361361410E0,1.695000008E-2,9.487950325E0,2.180999994E0
3.363867487E0,1.240500063E-1,8.796000481E0,2.001000166E0
3.366374254E0,1.650000066E-1,9.004950523E0,1.957950115E0
3.368881947E0,1.480500102E-1,9.772950172E0,1.888950109E0
3.371388795E0,1.309500039E-1,1.035495090E1,1.630050063E0
3.373894872E0,4.800000042E-2,1.016100025E1,1.386000037E0
3.376401716E0,-1.800000109E-2,9.436050415E0,1.371000051E0
3.378909336E0,-1.395000052E-2,8.835000038E0,1.354950070E0
3.381416184E0,-3.495000303E-2,9.000000000E0,1.507950068E0
3.383922237E0,-1.360500008E-1,9.820950508E0,1.965000153E0
3.386429081E0,-1.279500127E-1,1.051305008E1,2.134950161E0
3.388936774E0,-1.740000099E-1,1.045305061E1,2.065950155E0
3.391443575E0,-1.759500057E-1,9.667950630E0,2.071050167E0
3.393949652E0,-2.805000171E-2,8.740950584E0,1.824000120E0
3.396456496E0,1.200000048E-1,8.511000633E0,1.656000137E0
3.398964188E0,1.890000105E-1,9.310950279E0,1.891050100E0
3.401470960E0,2.460000068E-1,1.034295082E1,2.026950121E0
3.403977132E0,2.700000107E-1,1.076400089E1,1.831050038E0
3.406483900E0,1.909500062E-1,1.021095085E1,1.600950122E0
3.408991592E0,1.000500023E-1,9.166950226E0,1.383000016E0
3.411498594E0,4.305000231E-2,8.665050507E0,1.294950008E0
3.414004517E0,-1.000500023E-1,9.169950485E0,1.573050022E0
3.416511284E0,-1.519500017E-1,1.008000088E1,1.852950096E0
3.419018977E0,-1.519500017E-1,1.050300026E1,1.932000041E0
3.421525979E0,-1.399500072E-1,1.000305080E1,1.956000090E0
3.424031902E0,-3.495000303E-2,9.121950150E0,1.972050071E0
3.426538900E0,1.270500124E-1,8.755949974E0,2.005950212E0
3.429046592E0,2.200500071E-1,9.258000374E0,2.116050005E0
3.431553435E0,2.440500110E-1,1.010595036E1,2.113950014E0
3.434059281E0,2.200500071E-1,1.054695034E1,1.852950096E0
3.436566279E0,4.500000179E-2,1.019505024E1,1.477050066E0
3.439073972E0,-5.205000192E-2,9.376049995E0,1.273050070E0
3.441580743E0,-1.140000075E-1,8.719950676E0,1.102950096E0
3.444086897E0,-1.500000060E-1,8.806050301E0,1.261050105E0
3.446593664E0,-1.909500062E-1,9.643950462E0,1.843050122E0
3.449101356E0,-1.189500093E-1,1.044795036E1,2.068050146E0
3.451608204E0,-1.000500023E-1,1.054395008E1,2.106000185E0
3.454114281E0,-7.095000148E-2,9.816000938E0,2.185050011E0
3.456621020E0,6.705000252E-2,8.892000198E0,2.047049999E0
3.459128789E0,1.429500133E-1,8.692950249E0,1.825950146E0
3.461635579E0,1.390500069E-1,9.406949997E0,1.924950123E0
3.464141733E0,1.510500014E-1,1.032405090E1,1.884000063E0
3.466648476E0,1.510500014E-1,1.051305008E1,1.506000042E0
3.469156169E0,8.595000207E-2,9.852000237E0,1.363950014E0
3.471662940E0,8.805000782E-2,8.952000618E0,1.371000051E0
3.474169094E0,1.050000042E-1,8.734050751E0,1.414950013E0
3.476675861E0,4.950000439E-3,9.418950081E0,1.768950105E0
3.479183553E0,-3.495000303E-2,1.038795090E1,2.104050159E0
3.481690555E0,-9.300000221E-2,1.070895004E1,2.157000065E0
3.484196478E0,-1.639500111E-1,1.002000046E1,2.029950142E0
3.486703245E0,-1.020000055E-1,8.997000694E0,1.822050095E0
3.489210938E0,7.395000011E-2,8.539950371E0,1.707000136E0
3.491717940E0,1.339500099E-1,9.045000076E0,1.873950124E0
3.494223863E0,2.059500068E-1,1.001700020E1,2.044049978E0
3.496730880E0,2.659500241E-1,1.062105083E1,1.944000125E0
3.499238572E0,1.480500102E-1,1.040505028E1,1.692000031E0
3.501745343E0,9.600000083E-2,9.471000671E0,1.483950019E0
3.504251263E0,1.695000008E-2,8.728950500E0,1.297050118E0
3.506758261E0,-1.309500039E-1,8.884950638E0,1.414950013E0
3.509265953E0,-2.700000107E-1,9.799950600E0,1.834050059E0
3.511772723E0,-2.239500135E-1,1.052505016E1,1.917000055E0
3.514278877E0,-2.359500080E-1,1.036905003E1,1.848000050E0
3.516785620E0,-1.399500072E-1,9.495000839E0,2.025000095E0
3.519293312E0,1.080000028E-1,8.683950424E0,1.945950150E0
3.521800176E0,2.370000184E-1,8.767950058E0,1.891050100E0
3.524306253E0,3.040500283E-1,9.697050095E0,2.118000031E0
3.526813020E0,2.850000262E-1,1.058700085E1,2.095050097E0
3.529320712E0,1.990500093E-1,1.068105030E1,1.743000031E0
3.531827560E0,3.299999982E-2,9.904950142E0,1.395000100E0
3.534333637E0,-2.295000106E-2,8.863050461E0,1.063050032E0
3.536840481E0,-5.205000192E-2,8.485050201E0,1.041000009E0
3.539348097E0,-1.189500093E-1,9.136050224E0,1.528950095E0
3.541854945E0,-1.000500023E-1,1.014195061E1,2.005950212E0
3.544361022E0,-6.105000153E-2,1.071705055E1,2.245050192E0
3.546867866E0,-1.605000161E-2,1.024695015E1,2.241000175E0
3.549375558E0,9.300000221E-2,9.261000633E0,2.089950085E0
3.551882330E0,1.750500053E-1,8.715000153E0,1.965000153E0
3.554388478E0,1.339500099E-1,9.109950066E0,1.981950045E0
3.556895246E0,1.200000048E-1,9.961950302E0,1.884000063E0
3.559402952E0,1.080000028E-1,1.041495037E1,1.611000061E0
3.561909723E0,-1.605000161E-2,1.009905052E1,1.315950036E0
3.564415877E0,-3.795000166E-2,9.277950287E0,1.321050048E0
3.566922619E0,-2.805000171E-2,8.764950752E0,1.336050034E0
3.569430312E0,-2.295000106E-2,9.073950768E0,1.576950073E0
3.571937314E0,-1.170000061E-1,9.993000031E0,2.001000166E0
3.574443237E0,-8.295000345E-2,1.058205032E1,2.157000065E0
3.576950235E0,-1.549500078E-1,1.035495090E1,2.097000122E0
3.579457696E0,-1.500000060E-1,9.526950836E0,2.062950134E0
3.581964698E0,-2.100000158E-2,8.707950592E0,1.798050046E0
3.584470621E0,9.795000404E-2,8.638050079E0,1.632000089E0
3.586977619E0,1.789500117E-1,9.418950081E0,1.884000063E0
3.589485312E0,2.340000123E-1,1.041495037E1,1.984050035E0
3.591992160E0,2.389500141E-1,1.068795013E1,1.783050060E0
3.594498006E0,1.699500084E-1,1.006995010E1,1.564950109E0
3.597005004E0,1.459500045E-1,9.060000420E0,1.357050061E0
3.599512696E0,3.795000166E-2,8.690999985E0,1.339950085E0
3.602019544E0,-6.900000572E-2,9.333000183E0,1.668000102E0
3.604525626E0,-1.639500111E-1,1.022295094E1,1.891050100E0
3.607032394E0,-1.909500062E-1,1.051305008E1,1.921950102E0
3.609540163E0,-1.879500151E-1,9.871050835E0,1.941000104E0
3.612046939E0,-4.695000127E-2,8.965950012E0,1.977000117E0
3.614553016E0,1.600500047E-1,8.710050583E0,2.008050203E0
3.617059860E0,2.200500071E-1,9.381000519E0,2.137950182E0
3.619567562E0,2.490000129E-1,1.029300022E1,2.125950098E0
3.622074565E0,2.029500157E-1,1.063500023E1,1.845000029E0
3.624581642E0,6.195000187E-2,1.008705044E1,1.477050066E0
3.627087256E0,-5.895000324E-2,9.129000664E0,1.240050077E0
3.629594946E0,-7.605000585E-2,8.539950371E0,1.063050032E0
3.632101948E0,-1.380000114E-1,8.887050629E0,1.294950008E0
3.634607871E0,-1.840500087E-1,9.832950592E0,1.897950053E0
3.637114638E0,-1.240500063E-1,1.056600094E1,2.125950098E0
3.639622331E0,-1.069500074E-1,1.048395061E1,2.170950174E0
3.642129333E0,-5.205000192E-2,9.685050011E0,2.257050037E0
3.644635256E0,1.170000061E-1,8.803050041E0,1.965000153E0
3.647142254E0,1.770000011E-1,8.715000153E0,1.756950140E0
3.649649715E0,1.750500053E-1,9.499950409E0,1.921950102E0
3.652156731E0,1.720500141E-1,1.033605003E1,1.801950097E0
3.654662655E0,1.530000120E-1,1.045995045E1,1.501050115E0
3.657169653E0,4.305000231E-2,9.778050423E0,1.411950111E0
3.659677341E0,6.000000238E-2,8.968950272E0,1.347000122E0
3.662184112E0,6.705000252E-2,8.824950218E0,1.426050067E0
3.664690266E0,-1.395000052E-2,9.531000137E0,1.810050130E0
3.667197028E0,-5.700000376E-2,1.037895012E1,2.095050097E0
3.669704720E0,-7.605000585E-2,1.056105042E1,2.104050159E0
3.672211497E0,-1.480500102E-1,9.844950676E0,2.061000109E0
3.674717651E0,-5.205000192E-2,8.977950096E0,1.879050136E0
3.677224413E0,8.400000632E-2,8.701050758E0,1.798050046E0
3.679732105E0,1.339500099E-1,9.282000542E0,1.948050141E0
3.682238953E0,2.010000050E-1,1.010100079E1,2.005950212E0
3.684745030E0,2.320500165E-1,1.047705078E1,1.783050060E0
3.687251797E0,1.309500039E-1,1.012800026E1,1.564950109E0
3.689759490E0,4.800000042E-2,9.357000351E0,1.458000064E0
3.692266338E0,-1.605000161E-2,8.839050293E0,1.347000122E0
3.694772415E0,-1.450500041E-1,9.151050568E0,1.567950130E0
3.697279259E0,-2.310000062E-1,9.955050468E0,1.893000126E0
3.699786951E0,-1.810500026E-1,1.040805054E1,1.869000077E0
3.702293732E0,-1.810500026E-1,1.009200001E1,1.857000113E0
3.704799808E0,-1.020000055E-1,9.306000710E0,2.008050203E0
3.707306653E0,1.339500099E-1,8.690999985E0,1.951050043E0
3.709814331E0,2.320500165E-1,8.928000450E0,1.975050092E0
3.712321102E0,2.920500040E-1,9.879000664E0,2.166000128E0
3.714827256E0,2.580000162E-1,1.065705013E1,2.023050070E0
3.717334018E0,1.549500078E-1,1.057995033E1,1.618050098E0
3.719841711E0,9.000000544E-3,9.709050179E0,1.338000059E0
3.722348713E0,-2.100000158E-2,8.722050667E0,1.069950104E0
3.724854636E0,-2.805000171E-2,8.511000633E0,1.105949998E0
3.727361403E0,-1.069500074E-1,9.328050613E0,1.635000110E0
3.729869326E0,-6.405000389E-2,1.037895012E1,2.073000193E0
3.732376097E0,-4.500000179E-2,1.075500011E1,2.238000154E0
3.734882251E0,-2.805000171E-2,1.006500053E1,2.205000162E0
3.737389018E0,4.500000179E-2,9.052050591E0,2.044049978E0
3.739896480E0,1.339500099E-1,8.698050499E0,1.944000125E0
3.742403477E0,1.200000048E-1,9.249000549E0,1.980000138E0
3.744909400E0,1.219500080E-1,1.008705044E1,1.884000063E0
3.747416398E0,1.170000061E-1,1.039605045E1,1.546050072E0
3.749924076E0,4.800000042E-2,9.913950920E0,1.366950035E0
3.752430924E0,-4.050000105E-3,9.136050224E0,1.363950014E0
3.754937001E0,4.950000439E-3,8.812950134E0,1.399950027E0
3.757443846E0,-5.400000140E-2,9.340050697E0,1.719000101E0
3.759951461E0,-1.069500074E-1,1.017795086E1,2.068050146E0
3.762458309E0,-1.140000075E-1,1.056600094E1,2.062950134E0
3.764964386E0,-1.810500026E-1,1.015095043E1,1.981950045E0
3.767471230E0,-1.500000060E-1,9.309000015E0,1.987050056E0
3.769978922E0,2.895000204E-2,8.656949997E0,1.728000045E0
3.772485694E0,1.549500078E-1,8.827050209E0,1.765950084E0
3.774991771E0,2.389500141E-1,9.732000351E0,2.041949987E0
3.777498615E0,2.749500275E-1,1.055400085E1,2.023050070E0
3.780006307E0,2.509500086E-1,1.054200077E1,1.708950043E0
3.782513068E0,1.720500141E-1,9.735000610E0,1.471950054E0
3.785019222E0,1.000500023E-1,8.892000198E0,1.291950107E0
3.787525989E0,-4.050000105E-3,8.824950218E0,1.422000051E0
3.790033682E0,-1.620000005E-1,9.571950912E0,1.756950140E0
3.792540675E0,-1.930500120E-1,1.035495090E1,1.879050136E0
3.795046598E0,-2.149500102E-1,1.038600063E1,1.893000126E0
3.797553336E0,-1.309500039E-1,9.637050629E0,1.915050149E0
3.800061028E0,2.400000021E-2,8.892000198E0,1.977000117E0
3.802568030E0,1.770000011E-1,8.844000816E0,2.035050154E0
3.805073953E0,2.299500108E-1,9.547950745E0,2.154000044E0
3.807580951E0,2.850000262E-1,1.033305073E1,2.116050005E0
3.810088644E0,1.960500032E-1,1.053195095E1,1.756950140E0
3.812595415E0,-1.950000064E-3,9.991050720E0,1.414950013E0
3.815101338E0,-8.505000174E-2,9.109950066E0,1.177050114E0
3.817608336E0,-1.120500043E-1,8.569050789E0,1.053000093E0
3.820116033E0,-1.519500017E-1,8.959050179E0,1.441050053E0
3.822622805E0,-1.740000099E-1,9.912000656E0,1.963050127E0
3.825128973E0,-6.105000153E-2,1.058505058E1,2.089950085E0
3.827635740E0,-8.100000024E-2,1.047705078E1,2.217000008E0
3.830143451E0,1.200000010E-2,9.613050461E0,2.274000168E0
3.832650222E0,1.410000026E-1,8.748000145E0,1.924950123E0
3.835156371E0,1.459500045E-1,8.784000397E0,1.789950132E0
3.837663138E0,1.510500014E-1,9.646050453E0,1.873950124E0
3.840170831E0,1.459500045E-1,1.043205070E1,1.671000123E0
3.842677679E0,9.300000221E-2,1.037205029E1,1.381050110E0
3.845183756E0,5.700000376E-2,9.567000389E0,1.383000016E0
3.847690600E0,9.600000083E-2,8.824950218E0,1.359000087E0
3.850198215E0,9.300000221E-2,8.926050186E0,1.551000118E0
3.852705064E0,-6.000000052E-3,9.760950089E0,1.939050078E0
3.855211140E0,-5.895000324E-2,1.055595016E1,2.157000065E0
3.857717985E0,-1.170000061E-1,1.055100060E1,2.180999994E0
3.860225668E0,-2.029500157E-1,9.676950455E0,2.035050154E0
3.862732670E0,-5.895000324E-2,8.740950584E0,1.743000031E0
3.865238516E0,6.000000238E-2,8.563950539E0,1.684950113E0
3.867745350E0,1.120500043E-1,9.340050697E0,1.932000041E0
3.870253043E0,2.149500102E-1,1.032900047E1,2.011049986E0
3.872759809E0,2.320500165E-1,1.070895004E1,1.828950047E0
3.875265944E0,1.339500099E-1,1.014195061E1,1.611000061E0
3.877772711E0,8.805000782E-2,9.148050308E0,1.434000015E0
3.880280403E0,1.905000024E-2,8.629050255E0,1.290000081E0
3.882787405E0,-1.360500008E-1,9.105000496E0,1.567950130E0
3.885293328E0,-2.220000178E-1,1.005105019E1,1.900950074E0
3.887800326E0,-2.100000083E-1,1.053705025E1,1.917000055E0
3.890308019E0,-2.550000250E-1,1.017495060E1,1.960050106E0
3.892814790E0,-1.360500008E-1,9.241950035E0,2.032050133E0
3.895320944E0,1.080000028E-1,8.626049995E0,1.843050122E0
3.897827711E0,2.200500071E-1,8.935050011E0,1.881000042E0
3.900335403E0,2.970000207E-1,9.901950836E0,2.074949980E0
3.902842237E0,2.700000107E-1,1.057995033E1,1.924950123E0
3.905348314E0,1.530000120E-1,1.053000069E1,1.692000031E0
3.907855082E0,4.500000179E-2,9.670050621E0,1.402950048E0
3.910362774E0,-1.950000064E-3,8.763000488E0,1.126950026E0
3.912869622E0,-7.304999977E-2,8.619000435E0,1.180050015E0
3.915375699E0,-1.399500072E-1,9.352050781E0,1.644000053E0
3.917882543E0,-1.020000055E-1,1.029300022E1,2.025000095E0
3.920390159E0,-1.020000055E-1,1.059900093E1,2.209050179E0
3.922897007E0,-3.795000166E-2,9.996000290E0,2.253000021E0
3.925403084E0,4.500000179E-2,9.091050148E0,2.097000122E0
3.927909928E0,1.360500008E-1,8.791950226E0,1.980000138E0
3.930417624E0,1.459500045E-1,9.369000435E0,1.984050035E0
3.932924395E0,1.630500108E-1,1.014405060E1,1.843050122E0
3.935430549E0,1.080000028E-1,1.036005020E1,1.503000021E0
3.937937316E0,7.050000131E-3,9.795000076E0,1.321050048E0
3.940445009E0,-1.395000052E-2,9.009000778E0,1.366950035E0
3.942951780E0,1.905000024E-2,8.806050301E0,1.419000030E0
3.945457934E0,-5.205000192E-2,9.451950073E0,1.786050081E0
3.947964701E0,-1.020000055E-1,1.035300064E1,2.101950169E0
3.950472393E0,-1.360500008E-1,1.062795067E1,2.074949980E0
3.952979395E0,-2.029500157E-1,1.007700062E1,2.023050070E0
3.955485314E0,-1.210500076E-1,9.096000671E0,1.936050057E0
3.957992312E0,8.100000024E-2,8.490000725E0,1.644000053E0
3.960499778E0,1.459500045E-1,8.822999954E0,1.696950078E0
3.963006780E0,1.819500029E-1,9.912000656E0,2.035050154E0
3.965512732E0,2.460000068E-1,1.071405029E1,1.963050127E0
3.968019730E0,1.960500032E-1,1.059405041E1,1.728000045E0
3.970527413E0,1.200000048E-1,9.627000809E0,1.503000021E0
3.973034185E0,9.600000083E-2,8.712000847E0,1.303950071E0
3.975540108E0,-2.805000171E-2,8.734050751E0,1.387950063E0
3.978047106E0,-1.309500039E-1,9.630000114E0,1.723050117E0
3.980554798E0,-1.519500017E-1,1.050105095E1,1.948050141E0
3.983061569E0,-1.999500096E-1,1.050300026E1,1.975050092E0
3.985567723E0,-1.399500072E-1,9.607950211E0,1.989000082E0
3.988074490E0,3.105000220E-2,8.752950668E0,1.933950067E0
3.990582260E0,1.720500141E-1,8.776950836E0,1.989000082E0
3.993089031E0,2.010000050E-1,9.625050545E0,2.097000122E0
3.995595108E0,2.320500165E-1,1.049595070E1,2.008050203E0
3.998101875E0,1.410000026E-1,1.054200077E1,1.692000031E0
4.000609567E0,0.000000000E0,9.808950424E0,1.405050039E0
4.003116400E0,-3.795000166E-2,8.878050804E0,1.185000062E0
4.005622477E0,-8.295000345E-2,8.559000015E0,1.101000071E0
4.008129322E0,-1.380000114E-1,9.184050560E0,1.564950109E0
4.010637014E0,-1.519500017E-1,1.018305016E1,2.023050070E0
4.013143785E0,-7.095000148E-2,1.064895058E1,2.142000198E0
4.015649849E0,-9.300000221E-2,1.025400066E1,2.217000008E0
4.018156693E0,-1.095000096E-2,9.313050270E0,2.140050173E0
4.020664394E0,1.030500084E-1,8.638050079E0,1.812000036E0
4.023171396E0,1.290000081E-1,8.932950020E0,1.822050095E0
4.025677319E0,1.309500039E-1,9.888000488E0,1.932000041E0
4.028184317E0,1.429500133E-1,1.054395008E1,1.702050090E0
4.030691778E0,1.290000081E-1,1.033305073E1,1.402950048E0
4.033198780E0,9.300000221E-2,9.400050163E0,1.338000059E0
4.035704703E0,1.170000061E-1,8.689050674E0,1.302000046E0
4.038211701E0,8.595000207E-2,8.947050095E0,1.596000075E0
4.040719394E0,-6.000000052E-3,9.907050133E0,2.026950121E0
4.043226199E0,-7.605000585E-2,1.066395092E1,2.170950174E0
4.045732353E0,-1.500000060E-1,1.050300026E1,2.152050018E0
4.048239120E0,-1.879500151E-1,9.553050041E0,2.001000166E0
4.050746831E0,-6.599999964E-2,8.680950165E0,1.738050103E0
4.053253602E0,3.600000218E-2,8.635950089E0,1.716000080E0
4.055759771E0,1.150500029E-1,9.442950249E0,1.917000055E0
4.058266539E0,2.200500071E-1,1.032900047E1,1.993950129E0
4.060774235E0,2.320500165E-1,1.059705067E1,1.780950069E0
4.063281083E0,1.669500023E-1,9.991050720E0,1.588950038E0
4.065787160E0,7.905000448E-2,9.124050140E0,1.434000015E0
4.068293927E0,-6.000000052E-3,8.812950134E0,1.359000087E0
4.070801620E0,-1.600500047E-1,9.330000877E0,1.647000074E0
4.073308468E0,-2.359500080E-1,1.012800026E1,1.852950096E0
4.075814545E0,-2.239500135E-1,1.038795090E1,1.807050109E0
4.078321389E0,-2.190000117E-1,9.943050385E0,1.933950067E0
4.080829081E0,-6.405000389E-2,9.121950150E0,2.025000095E0
4.083335852E0,1.360500008E-1,8.723999977E0,1.897950053E0
4.085841944E0,2.419500053E-1,9.222000122E0,2.053950071E0
4.088348788E0,2.850000262E-1,1.015395069E1,2.178000212E0
4.090856481E0,2.340000123E-1,1.065705013E1,1.888950109E0
4.093363233E0,1.150500029E-1,1.028595066E1,1.531950116E0
4.095869387E0,1.695000008E-2,9.328050613E0,1.264050007E0
4.098376168E0,-9.000000544E-3,8.578050613E0,1.081950068E0
4.100883860E0,-8.100000024E-2,8.822999954E0,1.326000094E0
4.103390881E0,-1.069500074E-1,9.730050087E0,1.780950069E0
4.105896804E0,-8.505000174E-2,1.051995087E1,2.098950148E0
4.108403572E0,-5.205000192E-2,1.049400043E1,2.193000078E0
4.110911269E0,-1.950000064E-3,9.630000114E0,2.149950027E0
4.113418271E0,9.105000645E-2,8.844000816E0,2.008050203E0
4.115924194E0,1.459500045E-1,8.880000114E0,1.984050035E0
4.118431192E0,1.360500008E-1,9.607950211E0,1.992000103E0
4.120938654E0,1.360500008E-1,1.029795074E1,1.780950069E0
4.123445656E0,8.400000632E-2,1.026900005E1,1.443000078E0
4.125951579E0,1.950000064E-3,9.619950294E0,1.336050034E0
4.128458577E0,0.000000000E0,8.920950890E0,1.369050026E0
4.130966269E0,9.000000544E-3,8.854050636E0,1.402950048E0
4.133473040E0,-6.105000153E-2,9.625050545E0,1.872000098E0
4.135979179E0,-8.295000345E-2,1.044405079E1,2.161950111E0
4.138485946E0,-1.050000042E-1,1.057005024E1,2.050950050E0
4.140993654E0,-1.860000044E-1,9.952950478E0,2.008050203E0
4.143500502E0,-1.000500023E-1,9.007050514E0,1.848000050E0
4.146006579E0,4.305000231E-2,8.513999939E0,1.615950108E0
4.148513346E0,1.170000061E-1,8.995050430E0,1.774050117E0
4.151021033E0,2.059500068E-1,1.004595089E1,2.026950121E0
4.153527881E0,2.610000074E-1,1.071705055E1,1.897950053E0
4.156034035E0,2.220000178E-1,1.046505070E1,1.692000031E0
4.158540784E0,1.459500045E-1,9.502950668E0,1.501050115E0
4.161048399E0,1.080000028E-1,8.775000572E0,1.345050097E0
4.163555247E0,-1.605000161E-2,8.971050262E0,1.561050057E0
4.166061328E0,-1.380000114E-1,9.787950516E0,1.798050046E0
4.168568172E0,-1.840500087E-1,1.038405037E1,1.852950096E0
4.171075899E0,-1.740000099E-1,1.019700050E1,1.915050149E0
4.173582901E0,-1.189500093E-1,9.421050072E0,1.960050106E0
4.176088824E0,3.600000218E-2,8.847000122E0,1.999050140E0
4.178595591E0,1.990500093E-1,9.072000504E0,2.083050013E0
4.181103283E0,2.320500165E-1,9.864000320E0,2.133000135E0
4.183610285E0,2.730000019E-1,1.045095062E1,1.960050106E0
4.186116208E0,1.600500047E-1,1.032600021E1,1.600950122E0
4.188623206E0,3.795000166E-2,9.619950294E0,1.302000046E0
4.191130668E0,-3.495000303E-2,8.855999947E0,1.180050015E0
4.193637670E0,-1.120500043E-1,8.722050667E0,1.216050029E0
4.196143593E0,-1.789500117E-1,9.364050865E0,1.678050041E0
4.198650586E0,-1.620000005E-1,1.026600075E1,2.050950050E0
4.201158278E0,-1.279500127E-1,1.062300014E1,2.068050146E0
4.203665049E0,-9.495000541E-2,1.009395027E1,2.158950090E0
4.206171194E0,1.695000008E-2,9.120000839E0,2.077950001E0
4.208677962E0,1.219500080E-1,8.605050087E0,1.810050130E0
4.211185654E0,1.579500139E-1,9.097949982E0,1.879050136E0
4.213692501E0,1.770000011E-1,1.006800079E1,1.921950102E0
4.216198578E0,1.600500047E-1,1.057005024E1,1.624950051E0
4.218705331E0,9.600000083E-2,1.012500095E1,1.395000100E0
4.221213023E0,7.200000435E-2,9.234000206E0,1.359000087E0
4.223719883E0,8.805000782E-2,8.680950165E0,1.338000059E0
4.226225960E0,2.895000204E-2,9.103050232E0,1.644000053E0
4.228732804E0,-1.395000052E-2,1.003395081E1,2.041949987E0
4.231240496E0,-6.599999964E-2,1.066605091E1,2.170950174E0
4.233747267E0,-1.740000099E-1,1.040295029E1,2.137950182E0
4.236253344E0,-1.450500041E-1,9.415950775E0,1.969950080E0
4.238760188E0,1.695000008E-2,8.605050087E0,1.723050117E0
4.241267881E0,1.339500099E-1,8.680950165E0,1.743000031E0
4.243774652E0,1.890000105E-1,9.534000397E0,1.957950115E0
4.246280806E0,2.610000074E-1,1.047705078E1,1.972050071E0
4.248787539E0,2.059500068E-1,1.063800049E1,1.752000093E0
4.251295231E0,1.080000028E-1,9.904950142E0,1.558050036E0
4.253802233E0,6.405000389E-2,8.971050262E0,1.387950063E0
4.256308161E0,-2.595000155E-2,8.710050583E0,1.351950049E0
4.258814929E0,-1.759500057E-1,9.391950607E0,1.672950029E0
4.261322621E0,-2.269500047E-1,1.028100014E1,1.872000098E0
4.263829623E0,-2.119500041E-1,1.047195053E1,1.891050100E0
4.266335531E0,-2.149500102E-1,9.843000412E0,1.993950129E0
4.268842529E0,-2.295000106E-2,8.973000526E0,2.008050203E0
4.271349991E0,1.630500108E-1,8.695950508E0,1.873950124E0
4.273856993E0,2.389500141E-1,9.376049995E0,2.013000011E0
4.276362916E0,2.610000074E-1,1.028805065E1,2.065950155E0
4.278869914E0,2.299500108E-1,1.062600040E1,1.777950048E0
4.281377606E0,1.050000042E-1,1.009905052E1,1.459950089E0
4.283884377E0,2.100000158E-2,9.166950226E0,1.258950114E0
4.286390300E0,1.950000064E-3,8.638050079E0,1.102950096E0
4.288897298E0,-8.295000345E-2,8.977950096E0,1.435950041E0
4.291404986E0,-9.000000358E-2,9.874050140E0,1.909950137E0
4.293911757E0,-7.605000585E-2,1.053195095E1,2.164050102E0
4.296417911E0,-7.304999977E-2,1.034505081E1,2.209050179E0
4.298924698E0,-1.095000096E-2,9.499950409E0,2.118000031E0
4.301432467E0,8.595000207E-2,8.863050461E0,1.984050035E0
4.303939204E0,1.120500043E-1,9.013950348E0,1.981950045E0
4.306445281E0,1.099500060E-1,9.760950089E0,1.969950080E0
4.308952111E0,1.459500045E-1,1.031700039E1,1.687050104E0
4.311459803E0,1.030500084E-1,1.015905094E1,1.326000094E0
4.313966579E0,2.895000204E-2,9.414000511E0,1.326000094E0
4.316472733E0,4.995000362E-2,8.822999954E0,1.375950098E0
4.318979500E0,2.895000204E-2,9.009000778E0,1.551000118E0
4.321487192E0,-6.599999964E-2,9.876000404E0,2.023050070E0
4.323993964E0,-1.050000042E-1,1.058205032E1,2.193000078E0
4.326500118E0,-1.549500078E-1,1.047000027E1,2.001000166E0
4.329006885E0,-2.530499995E-1,9.682050705E0,1.968000054E0
4.331514577E0,-1.380000114E-1,8.803050041E0,1.800000072E0
4.334021579E0,4.305000231E-2,8.521050453E0,1.570050120E0
4.336527502E0,1.309500039E-1,9.246000290E0,1.840950131E0
4.339034500E0,2.419500053E-1,1.029495049E1,2.074949980E0
4.341541972E0,2.920500040E-1,1.075005054E1,1.879050136E0
4.344048974E0,2.580000162E-1,1.028295040E1,1.639950037E0
4.346554897E0,1.669500023E-1,9.270000458E0,1.434000015E0
4.349061880E0,1.170000061E-1,8.667000771E0,1.318950057E0
4.351569572E0,-6.900000572E-2,9.097949982E0,1.570050120E0
4.354076358E0,-1.620000005E-1,1.006995010E1,1.891050100E0
4.356582512E0,-2.100000083E-1,1.057005024E1,1.951050043E0
4.359089261E0,-2.029500157E-1,1.008405018E1,1.903050065E0
4.361596953E0,-9.705000371E-2,9.103050232E0,1.876950145E0
4.364103801E0,1.120500043E-1,8.623950005E0,1.965000153E0
4.366609878E0,2.110500038E-1,9.163050652E0,2.140050173E0
4.369116645E0,2.680500150E-1,1.011300087E1,2.190000057E0
4.371624337E0,2.730000019E-1,1.064205074E1,1.957950115E0
4.374131186E0,1.339500099E-1,1.027605057E1,1.570050120E0
4.376637263E0,-1.605000161E-2,9.354000092E0,1.261050105E0
4.379144107E0,-6.599999964E-2,8.629050255E0,1.042950034E0
4.381651722E0,-1.120500043E-1,8.752950668E0,1.180050015E0
4.384158570E0,-2.029500157E-1,9.646050453E0,1.804950118E0
4.386664647E0,-1.399500072E-1,1.047000027E1,2.116050005E0
4.389171505E0,-1.140000075E-1,1.053495026E1,2.104050159E0
4.391679198E0,-1.120500043E-1,9.820950508E0,2.152050018E0
4.394185944E0,4.995000362E-2,8.932950020E0,2.032050133E0
4.396692021E0,1.459500045E-1,8.722050667E0,1.857000113E0
4.399198879E0,1.309500039E-1,9.345000267E0,1.969950080E0
4.401706571E0,1.480500102E-1,1.021905041E1,1.884000063E0
4.404213358E0,1.309500039E-1,1.046805096E1,1.527000070E0
4.406719511E0,5.505000427E-2,9.948000908E0,1.369050026E0
4.409226279E0,7.605000585E-2,9.100049973E0,1.306950092E0
4.411733971E0,1.120500043E-1,8.723999977E0,1.357050061E0
4.414240973E0,5.205000192E-2,9.325050354E0,1.774050117E0
4.416746896E0,-1.605000161E-2,1.023795033E1,2.158950090E0
4.419253663E0,-6.405000389E-2,1.066905022E1,2.190000057E0
4.421761356E0,-1.399500072E-1,1.013505077E1,2.104050159E0
4.424268358E0,-1.210500076E-1,9.181950569E0,1.872000098E0
4.426774281E0,4.950000439E-3,8.593050003E0,1.723050117E0
4.429281279E0,6.000000238E-2,8.926050186E0,1.843050122E0
4.431788961E0,1.549500078E-1,9.832950592E0,1.968000054E0
4.434295732E0,2.539499998E-1,1.051800060E1,1.861950040E0
4.436801645E0,1.840500087E-1,1.044405079E1,1.704000115E0
4.439308643E0,1.080000028E-1,9.637050629E0,1.528950095E0
4.441816336E0,5.205000192E-2,8.892000198E0,1.363950014E0
4.444323184E0,-2.805000171E-2,8.860950470E0,1.450050116E0
4.446829261E0,-1.740000099E-1,9.601050377E0,1.801950097E0
4.449336086E0,-2.239500135E-1,1.034505081E1,1.939050078E0
4.451843778E0,-2.239500135E-1,1.037700081E1,1.879050136E0
4.454350549E0,-2.269500047E-1,9.706050873E0,1.992000103E0
4.456856626E0,-1.395000052E-2,8.866050720E0,1.987050056E0
4.459363471E0,1.549500078E-1,8.686050415E0,1.860000134E0
4.461871086E0,2.320500165E-1,9.427950859E0,2.014950037E0
4.464377934E0,2.629500031E-1,1.038405037E1,2.047049999E0
4.466884088E0,2.059500068E-1,1.072605038E1,1.774050117E0
4.469390855E0,9.600000083E-2,1.012305069E1,1.510050058E0
4.471898557E0,2.895000204E-2,9.076050758E0,1.204050064E0
4.474405559E0,1.905000024E-2,8.499000549E0,1.081950068E0
4.476911507E0,-8.505000174E-2,8.977950096E0,1.459950089E0
4.479418274E0,-1.090500057E-1,1.000995064E1,1.948050141E0
4.481925966E0,-9.000000358E-2,1.067595005E1,2.170950174E0
4.484432977E0,-1.050000042E-1,1.033095074E1,2.248050213E0
4.486938900E0,-3.000000119E-2,9.366000175E0,2.158950090E0
4.489445889E0,1.120500043E-1,8.722050667E0,1.957950115E0
4.491953351E0,1.600500047E-1,8.997000694E0,1.920000076E0
4.494460353E0,1.600500047E-1,9.838050842E0,1.893000126E0
4.496966276E0,1.530000120E-1,1.039305019E1,1.663950086E0
4.499473274E0,4.305000231E-2,1.014405060E1,1.405050039E0
4.501980966E0,1.395000052E-2,9.361050606E0,1.347000122E0
4.504487737E0,1.395000052E-2,8.806050301E0,1.330950022E0
4.506993660E0,0.000000000E0,9.055050850E0,1.525050044E0
4.509500658E0,-1.140000075E-1,9.936000824E0,2.013000011E0
4.512008351E0,-1.279500127E-1,1.059195042E1,2.113950014E0
4.514515112E0,-1.999500096E-1,1.041705036E1,2.029950142E0
4.517021266E0,-2.220000178E-1,9.567000389E0,2.025000095E0
4.519528033E0,-4.500000179E-2,8.674050331E0,1.807050109E0
4.522035725E0,1.050000042E-1,8.554050446E0,1.600950122E0
4.524542574E0,1.819500029E-1,9.345000267E0,1.924950123E0
4.527048651E0,2.560500205E-1,1.039095020E1,2.053950071E0
4.529555495E0,2.539499998E-1,1.075500011E1,1.869000077E0
4.532063115E0,1.870500147E-1,1.016805077E1,1.618050098E0
4.534569963E0,1.429500133E-1,9.124050140E0,1.371000051E0
4.537076040E0,6.900000572E-2,8.655000687E0,1.303950071E0
4.539582884E0,-7.095000148E-2,9.133950233E0,1.575000048E0
4.542090577E0,-1.519500017E-1,1.008195019E1,1.843050122E0
4.544597348E0,-1.759500057E-1,1.053900051E1,1.932000041E0
4.547103425E0,-1.909500062E-1,1.008705044E1,1.984050035E0
4.549610269E0,-7.095000148E-2,9.145950317E0,1.972050071E0
4.552117961E0,1.410000026E-1,8.722050667E0,1.975050092E0
4.554624733E0,2.149500102E-1,9.157950401E0,2.068050146E0
4.557130910E0,2.490000129E-1,1.004895020E1,2.061000109E0
4.559637678E0,2.299500108E-1,1.057500076E1,1.896000147E0
4.562145384E0,7.200000435E-2,1.028595066E1,1.540950060E0
4.564652386E0,-5.400000140E-2,9.442950249E0,1.314000010E0
4.567158328E0,-5.400000140E-2,8.689050674E0,1.114950061E0
4.569665095E0,-1.069500074E-1,8.748000145E0,1.267950058E0
4.572172788E0,-1.789500117E-1,9.603000641E0,1.789950132E0
4.574679795E0,-1.000500023E-1,1.045995045E1,2.062950134E0
4.577185948E0,-8.100000024E-2,1.057005024E1,2.130000114E0
4.579692726E0,-1.069500074E-1,9.840000153E0,2.209050179E0
4.582200187E0,2.895000204E-2,8.940000534E0,2.020050049E0
4.584707266E0,1.099500060E-1,8.731950760E0,1.819050074E0
4.587213112E0,1.290000081E-1,9.406949997E0,1.867050052E0
4.589720110E0,1.600500047E-1,1.023495007E1,1.765950084E0
4.592227803E0,1.750500053E-1,1.039800072E1,1.474050045E0
4.594734574E0,1.270500124E-1,9.790050507E0,1.393050075E0
4.597240728E0,1.360500008E-1,8.985000610E0,1.417050123E0
4.599747572E0,1.390500069E-1,8.835000038E0,1.465050101E0
4.602255187E0,3.600000218E-2,9.546000481E0,1.876950145E0
4.604762064E0,-4.500000179E-2,1.039095020E1,2.118000031E0
4.607268141E0,-1.050000042E-1,1.058505058E1,2.080049992E0
4.609774985E0,-1.980000138E-1,9.900000572E0,1.975050092E0
4.612282687E0,-1.480500102E-1,8.940000534E0,1.786050081E0
4.614789458E0,2.100000158E-2,8.554050446E0,1.699050069E0
4.617295535E0,1.030500084E-1,9.148050308E0,1.876950145E0
4.619802379E0,2.220000178E-1,1.011105061E1,2.014950037E0
4.622309634E0,2.680500150E-1,1.062600040E1,1.888950109E0
4.624816753E0,2.179500163E-1,1.032105064E1,1.656000137E0
4.627323002E0,1.410000026E-1,9.376049995E0,1.470000029E0
4.629829769E0,5.700000376E-2,8.719950676E0,1.321050048E0
4.632337461E0,-1.170000061E-1,8.989950180E0,1.510050058E0
4.634844232E0,-2.530499995E-1,9.862050056E0,1.869000077E0
4.637350386E0,-2.430000156E-1,1.047495079E1,1.873950124E0
4.639857384E0,-2.650500238E-1,1.027395058E1,1.828950047E0
4.642364846E0,-1.759500057E-1,9.463950157E0,1.989000082E0
4.644871848E0,3.105000220E-2,8.740950584E0,1.936050057E0
4.647377771E0,2.179500163E-1,8.830050468E0,1.900950074E0
4.649884769E0,3.010500073E-1,9.720000267E0,2.109000206E0
4.652392442E0,3.180000186E-1,1.051800060E1,2.056050062E0
4.654899213E0,2.250000089E-1,1.060200024E1,1.711050034E0
4.657405136E0,8.400000632E-2,9.892950058E0,1.429050088E0
4.659912153E0,1.695000008E-2,8.917950630E0,1.120050073E0
4.662419846E0,-2.595000155E-2,8.614050865E0,1.129950047E0
4.664926617E0,-1.170000061E-1,9.234000206E0,1.603950024E0
4.667432771E0,-1.020000055E-1,1.016295052E1,2.013000011E0
4.669939538E0,-5.700000376E-2,1.063800049E1,2.164050102E0
4.672447249E0,-5.895000324E-2,1.016100025E1,2.205000162E0
4.674954098E0,1.695000008E-2,9.232050896E0,2.104050159E0
4.677460174E0,1.270500124E-1,8.740950584E0,1.980000138E0
4.679966942E0,1.200000048E-1,9.196050644E0,1.965000153E0
4.682474634E0,1.240500063E-1,1.000095081E1,1.896000147E0
4.684981482E0,1.200000048E-1,1.038105011E1,1.539000034E0
4.687487559E0,3.105000220E-2,9.996000290E0,1.330950022E0
4.689994403E0,2.400000021E-2,9.201000214E0,1.333050013E0
4.692502096E0,3.105000220E-2,8.803050041E0,1.375950098E0
4.695008853E0,-2.805000171E-2,9.225000381E0,1.668000102E0
4.697514930E0,-9.300000221E-2,1.012995052E1,2.121000051E0
4.700021774E0,-9.300000221E-2,1.058505058E1,2.116050005E0
4.702529451E0,-1.810500026E-1,1.026600075E1,2.011049986E0
4.705036222E0,-1.930500120E-1,9.412050247E0,2.011049986E0
4.707542357E0,-2.295000106E-2,8.626049995E0,1.704000115E0
4.710049125E0,8.400000632E-2,8.656949997E0,1.618050098E0
4.712556793E0,1.530000120E-1,9.562050819E0,1.960050106E0
4.715063795E0,2.539499998E-1,1.053705025E1,2.032050133E0
4.717569718E0,2.490000129E-1,1.075200081E1,1.792950034E0
4.720076485E0,2.250000089E-1,9.972000122E0,1.600950122E0
4.722584408E0,1.840500087E-1,8.953950882E0,1.366950035E0
4.725091180E0,8.100000024E-2,8.650050163E0,1.378950119E0
4.727597333E0,-1.020000055E-1,9.366000175E0,1.696950078E0
4.730104101E0,-1.639500111E-1,1.031895065E1,1.915050149E0
4.732611562E0,-1.909500062E-1,1.057305050E1,1.933950067E0
4.735118564E0,-1.999500096E-1,9.826050758E0,1.924950123E0
4.737624713E0,-5.700000376E-2,8.863050461E0,1.876950145E0
4.740131480E0,1.339500099E-1,8.662050247E0,1.927050114E0
4.742639173E0,1.870500147E-1,9.433050156E0,2.149950027E0
4.745145939E0,2.419500053E-1,1.038105011E1,2.157000065E0
4.747652093E0,2.130000144E-1,1.066905022E1,1.819050074E0
4.750158918E0,7.605000585E-2,1.003905010E1,1.458000064E0
4.752666533E0,-2.805000171E-2,9.096000671E0,1.252050042E0
4.755173386E0,-8.505000174E-2,8.566050529E0,1.069950104E0
4.757679463E0,-1.549500078E-1,8.950050354E0,1.369050026E0
4.760186307E0,-2.029500157E-1,9.910050392E0,1.941000104E0
4.762694000E0,-1.429500133E-1,1.060200024E1,2.128050089E0
4.765200771E0,-1.260000020E-1,1.045095062E1,2.182950020E0
4.767706848E0,-5.895000324E-2,9.574050903E0,2.152050018E0
4.770213692E0,1.150500029E-1,8.703000069E0,1.864950061E0
4.772721307E0,1.549500078E-1,8.723999977E0,1.783050060E0
4.775228156E0,1.789500117E-1,9.598050117E0,1.968000054E0
4.777734309E0,1.890000105E-1,1.047705078E1,1.834050059E0
4.780241053E0,1.579500139E-1,1.050600052E1,1.495950103E0
4.782748745E0,1.050000042E-1,9.697050095E0,1.386000037E0
4.785255742E0,1.200000048E-1,8.787000656E0,1.330950022E0
4.787761665E0,1.030500084E-1,8.772000313E0,1.462050080E0
4.790268696E0,-4.050000105E-3,9.658050537E0,1.884000063E0
4.792776158E0,-6.405000389E-2,1.056300068E1,2.158950090E0
4.795283156E0,-1.309500039E-1,1.063500023E1,2.164050102E0
4.797789079E0,-1.519500017E-1,9.727950096E0,1.980000138E0
4.800296077E0,-6.405000389E-2,8.743950844E0,1.768950105E0
4.802803769E0,8.100000024E-2,8.575950623E0,1.719000101E0
4.805310540E0,1.429500133E-1,9.292050362E0,1.932000041E0
4.807816463E0,1.909500062E-1,1.030500031E1,2.041949987E0
4.810323461E0,2.220000178E-1,1.066905022E1,1.867050052E0
4.812831154E0,1.480500102E-1,1.012800026E1,1.596000075E0
4.815337925E0,5.505000427E-2,9.177000046E0,1.383000016E0
4.817844079E0,-1.095000096E-2,8.707950592E0,1.267950058E0
4.820350846E0,-1.500000060E-1,9.148050308E0,1.543950081E0
4.822858528E0,-2.550000250E-1,1.005300045E1,1.885950089E0
4.825365377E0,-2.170500159E-1,1.048695087E1,1.896000147E0
4.827871419E0,-2.430000156E-1,1.013205051E1,1.896000147E0
4.830378187E0,-1.210500076E-1,9.217950821E0,1.984050035E0
4.832885956E0,1.150500029E-1,8.611950874E0,1.879050136E0
4.835392727E0,2.370000184E-1,8.923050880E0,1.945950150E0
4.837898790E0,2.970000207E-1,9.961950302E0,2.170950174E0
4.840405634E0,2.800500095E-1,1.068105030E1,2.008050203E0
4.842913327E0,1.669500023E-1,1.056795025E1,1.660950065E0
4.845420098E0,4.995000362E-2,9.646050453E0,1.342950106E0
4.847926175E0,1.395000052E-2,8.679000854E0,1.054949999E0
4.850433019E0,-2.100000158E-2,8.575950623E0,1.132050037E0
4.852940711E0,-9.495000541E-2,9.390000343E0,1.678050041E0
4.855447713E0,-8.100000024E-2,1.038600063E1,2.095050097E0
4.857953636E0,-5.895000324E-2,1.069995022E1,2.238000154E0
4.860460634E0,-4.200000316E-2,1.000500011E1,2.188050032E0
4.862968096E0,4.800000042E-2,9.045000076E0,2.026950121E0
4.865475127E0,1.270500124E-1,8.767950058E0,1.948050141E0
4.867981050E0,1.099500060E-1,9.282000542E0,1.927050114E0
4.870488048E0,1.309500039E-1,1.006500053E1,1.810050130E0
4.872995528E0,1.150500029E-1,1.030500031E1,1.540950060E0
4.875502531E0,4.995000362E-2,9.826050758E0,1.395000100E0
4.878008463E0,0.000000000E0,9.153000832E0,1.441050053E0
4.880515461E0,2.895000204E-2,8.902050018E0,1.453050017E0
4.883022908E0,-4.200000316E-2,9.388050079E0,1.747050047E0
4.885529910E0,-1.210500076E-1,1.020705032E1,2.098950148E0
4.888036064E0,-1.549500078E-1,1.053900051E1,2.061000109E0
4.890542831E0,-2.220000178E-1,1.009905052E1,1.944000125E0
4.893050524E0,-1.620000005E-1,9.214950562E0,1.867050052E0
4.895557372E0,-9.000000544E-3,8.578050613E0,1.659000039E0
4.898063449E0,1.410000026E-1,8.854050636E0,1.740000129E0
4.900570293E0,2.490000129E-1,9.840000153E0,2.041949987E0
4.903077908E0,3.330000043E-1,1.061400032E1,1.999050140E0
4.905584679E0,2.779500186E-1,1.055805016E1,1.756950140E0
4.908090833E0,2.010000050E-1,9.697050095E0,1.555950046E0
4.910597667E0,1.150500029E-1,8.830050468E0,1.354950070E0
4.913105360E0,-2.805000171E-2,8.851050377E0,1.438050032E0
4.915612131E0,-1.720500141E-1,9.630000114E0,1.740000129E0
4.918118300E0,-2.119500041E-1,1.036200047E1,1.912950039E0
4.920625067E0,-2.220000178E-1,1.035705090E1,1.897950053E0
4.923132759E0,-1.840500087E-1,9.543000221E0,1.896000147E0
4.925639497E0,1.395000052E-2,8.824950218E0,1.920000076E0
4.928145650E0,2.029500157E-1,8.868000031E0,2.056050062E0
4.930652418E0,2.539499998E-1,9.639000893E0,2.185050011E0
4.933160115E0,2.869500220E-1,1.042695045E1,2.095050097E0
4.935667117E0,1.909500062E-1,1.051800060E1,1.707000136E0
4.938173040E0,2.100000158E-2,9.850050926E0,1.399950027E0
4.940680038E0,-8.805000782E-2,9.009000778E0,1.240050077E0
4.943187500E0,-1.330500096E-1,8.617050171E0,1.105949998E0
4.945694502E0,-1.960500032E-1,9.112050056E0,1.494000077E0
4.948200425E0,-1.860000044E-1,1.003395081E1,1.948050141E0
4.950707423E0,-9.300000221E-2,1.060395050E1,2.080049992E0
4.953215115E0,-9.495000541E-2,1.029300022E1,2.146950006E0
4.955721886E0,1.695000008E-2,9.403950691E0,2.154000044E0
4.958227809E0,1.579500139E-1,8.719950676E0,1.917000055E0
4.960734807E0,1.579500139E-1,8.956950188E0,1.879050136E0
4.963242471E0,1.549500078E-1,9.868950844E0,1.963050127E0
4.965749242E0,1.650000066E-1,1.046505070E1,1.654050112E0
4.968255396E0,1.200000048E-1,1.022595024E1,1.371000051E0
4.970762168E0,7.905000448E-2,9.414000511E0,1.350000024E0
4.973269860E0,9.300000221E-2,8.758049965E0,1.342950106E0
4.975776718E0,5.700000376E-2,9.021000862E0,1.575000048E0
4.978282794E0,-2.100000158E-2,9.901950836E0,2.008050203E0
4.980789596E0,-6.405000389E-2,1.061805058E1,2.197050095E0
4.983297288E0,-1.360500008E-1,1.044105053E1,2.110949993E0
4.985804136E0,-1.519500017E-1,9.490950584E0,1.915050149E0
4.988310213E0,-6.599999964E-2,8.653050423E0,1.690050125E0
4.990817057E0,6.405000389E-2,8.667000771E0,1.798050046E0
4.993324750E0,1.360500008E-1,9.531000137E0,2.032050133E0
4.995831521E0,2.059500068E-1,1.044405079E1,2.035050154E0
4.998337675E0,2.179500163E-1,1.064895058E1,1.765950084E0
5.000844442E0,1.270500124E-1,9.993000031E0,1.537050128E0
5.003352134E0,6.405000389E-2,9.049950600E0,1.405050039E0
5.005859150E0,-6.000000052E-3,8.680950165E0,1.300050020E0
5.008365073E0,-1.690500081E-1,9.262950897E0,1.615950108E0
5.010871841E0,-2.269500047E-1,1.014705086E1,1.912950039E0
5.013379533E0,-2.389500141E-1,1.051305008E1,1.896000147E0
5.015886535E0,-2.509500086E-1,1.005600071E1,1.957950115E0
5.018392458E0,-9.495000541E-2,9.154950142E0,2.014950037E0
5.020899216E0,1.050000042E-1,8.638050079E0,1.885950089E0
5.023406908E0,2.320500165E-1,9.103050232E0,1.968000054E0
5.025913910E0,3.130500019E-1,1.000500011E1,2.095050097E0
5.028420045E0,2.869500220E-1,1.063005066E1,1.888950109E0
5.030926813E0,1.650000066E-1,1.042395020E1,1.611000061E0
5.033434505E0,6.900000572E-2,9.534000397E0,1.362000108E0
5.035941353E0,2.595000155E-2,8.719950676E0,1.089000106E0
5.038447430E0,-5.700000376E-2,8.731950760E0,1.276050091E0
5.040954197E0,-1.210500076E-1,9.495000839E0,1.743000031E0
5.043461890E0,-1.240500063E-1,1.039800072E1,2.059050083E0
5.045968738E0,-1.140000075E-1,1.053900051E1,2.164050102E0
5.048474815E0,-7.605000585E-2,9.796950340E0,2.154000044E0
5.050981582E0,4.500000179E-2,8.985000610E0,2.038950205E0
5.053489278E0,1.360500008E-1,8.848950386E0,2.004000187E0
5.055996126E0,1.390500069E-1,9.483000755E0,1.969950080E0
5.058502199E0,1.990500093E-1,1.021095085E1,1.788000107E0
5.061009043E0,1.390500069E-1,1.029300022E1,1.470000029E0
5.063516736E0,2.100000158E-2,9.691950798E0,1.339950085E0
5.066023507E0,-1.950000064E-3,8.985000610E0,1.375950098E0
5.068529584E0,-1.950000064E-3,8.863050461E0,1.435950041E0
5.071036437E0,-1.020000055E-1,9.529050827E0,1.813950062E0
5.073544129E0,-1.240500063E-1,1.035000038E1,2.113950014E0
5.076050901E0,-1.450500041E-1,1.055595016E1,2.038950205E0
5.078557054E0,-2.029500157E-1,1.000800037E1,2.050950050E0
5.081063822E0,-9.705000371E-2,9.096000671E0,1.968000054E0
5.083571514E0,1.170000061E-1,8.526000023E0,1.654050112E0
5.086078516E0,1.939500123E-1,8.908950806E0,1.789950132E0
5.088584439E0,2.509500086E-1,9.952950478E0,2.011049986E0
5.091091437E0,2.920500040E-1,1.074795055E1,1.948050141E0
5.093598899E0,2.200500071E-1,1.061805058E1,1.732950091E0
5.096105901E0,1.459500045E-1,9.630000114E0,1.455000043E0
5.098611824E0,7.395000011E-2,8.689050674E0,1.233000040E0
5.101118836E0,-4.695000127E-2,8.770050049E0,1.434000015E0
5.103626528E0,-1.720500141E-1,9.720000267E0,1.800000072E0
5.106133299E0,-1.860000044E-1,1.054695034E1,1.968000054E0
5.108639213E0,-1.810500026E-1,1.043895054E1,1.968000054E0
5.111146211E0,-1.090500057E-1,9.469050407E0,1.972050071E0
5.113653904E0,6.405000389E-2,8.707950592E0,1.987050056E0
5.116160680E0,2.080500126E-1,8.854050636E0,2.037000179E0
5.118666834E0,2.610000074E-1,9.766050339E0,2.101950169E0
5.121173591E0,2.580000162E-1,1.051095009E1,1.989000082E0
5.123681283E0,1.309500039E-1,1.047705078E1,1.668000102E0
5.126188145E0,-1.605000161E-2,9.718050003E0,1.393050075E0
5.128694222E0,-7.605000585E-2,8.890050888E0,1.165950060E0
5.131201067E0,-1.140000075E-1,8.656949997E0,1.125000000E0
5.133708682E0,-1.980000138E-1,9.297000885E0,1.596000075E0
5.136215530E0,-1.380000114E-1,1.017300034E1,2.026950121E0
5.138721607E0,-9.000000358E-2,1.056600094E1,2.110949993E0
5.141228451E0,-9.300000221E-2,1.016595078E1,2.193000078E0
5.143736144E0,9.000000544E-3,9.282000542E0,2.118000031E0
5.146242915E0,1.290000081E-1,8.734050751E0,1.864950061E0
5.148748992E0,1.309500039E-1,9.085950851E0,1.855050087E0
5.151255836E0,1.939500123E-1,9.922050476E0,1.876950145E0
5.153763538E0,1.789500117E-1,1.043400097E1,1.647000074E0
5.156270309E0,1.150500029E-1,1.014195061E1,1.405050039E0
5.158776458E0,9.300000221E-2,9.345000267E0,1.381050110E0
5.161283225E0,1.030500084E-1,8.787000656E0,1.378950119E0
5.163791144E0,3.105000220E-2,9.139050484E0,1.690050125E0
5.166297915E0,-4.005000368E-2,1.001700020E1,2.049000025E0
5.168803838E0,-8.100000024E-2,1.057800007E1,2.134950161E0
5.171310836E0,-1.500000060E-1,1.027395058E1,2.059050083E0
5.173818528E0,-1.639500111E-1,9.378000259E0,1.896000147E0
5.176325299E0,-2.595000155E-2,8.723999977E0,1.752000093E0
5.178831453E0,9.600000083E-2,8.881950378E0,1.828950047E0
5.181338221E0,1.770000011E-1,9.679950714E0,1.993950129E0
5.183845682E0,2.509500086E-1,1.041195011E1,1.989000082E0
5.186352761E0,2.179500163E-1,1.046505070E1,1.723050117E0
5.188858607E0,1.219500080E-1,9.832950592E0,1.513050079E0
5.191365605E0,3.600000218E-2,9.052050591E0,1.390950084E0
5.193873297E0,-6.599999964E-2,8.824950218E0,1.371000051E0
5.196380146E0,-2.070000172E-1,9.382950783E0,1.692000031E0
5.198886223E0,-2.629500031E-1,1.018005085E1,1.905000091E0
5.201393091E0,-2.599500120E-1,1.040295029E1,1.855050087E0
5.203900706E0,-2.290500104E-1,9.937950134E0,1.921950102E0
5.206407554E0,-2.100000158E-2,9.069000244E0,1.975050092E0
5.208913612E0,1.939500123E-1,8.643000603E0,1.905000091E0
5.211420456E0,2.920500040E-1,9.193950653E0,2.037000179E0
5.213928168E0,3.420000076E-1,1.017495060E1,2.158950090E0
5.216434939E0,2.970000207E-1,1.074795055E1,1.884000063E0
5.218941093E0,1.309500039E-1,1.035495090E1,1.495950103E0
5.221447860E0,4.950000439E-3,9.358950615E0,1.264050007E0
5.223955552E0,-4.005000368E-2,8.566050529E0,1.054949999E0
