"Time (s)","Gyroscope x (rad/s)","Gyroscope y (rad/s)","Gyroscope z (rad/s)"
1.470841500E-2,3.547500074E-2,5.293750018E-2,-2.997500077E-2
1.721520800E-2,1.374999993E-3,8.222500235E-2,-3.616249934E-2
1.972282400E-2,-1.938750036E-2,5.898749828E-2,-4.097500071E-2
2.222970800E-2,-3.038750030E-2,-1.182499994E-2,-2.516249940E-2
2.473578500E-2,-4.509999976E-2,-6.682500243E-2,-1.924999990E-3
2.724263100E-2,-6.091250107E-2,-6.558749825E-2,1.526249945E-2
2.975032800E-2,-6.957499683E-2,-3.506249934E-2,2.736249939E-2
3.225732800E-2,-5.733750015E-2,3.987499978E-3,2.612499893E-2
3.476325300E-2,-2.186249942E-2,2.364999987E-2,1.759999990E-2
3.727025100E-2,2.213750035E-2,1.649999991E-3,9.074999951E-3
3.977771300E-2,6.366249919E-2,-3.011249937E-2,1.031249948E-2
4.228471500E-2,8.071249723E-2,-2.158750035E-2,5.362499971E-3
4.479063800E-2,6.971249729E-2,8.937500417E-3,-1.924999990E-3
4.729763600E-2,4.537500069E-2,3.698749840E-2,-9.212499484E-3
4.980532800E-2,1.842499897E-2,5.898749828E-2,-2.021249942E-2
5.231209900E-2,3.712499980E-3,4.069999978E-2,-1.773750037E-2
5.481802200E-2,-3.574999981E-3,-6.874999963E-3,-9.212499484E-3
5.732502000E-2,-9.624999948E-3,-3.382499889E-2,5.499999970E-4
5.983271200E-2,-2.914999984E-2,-3.506249934E-2,1.787499990E-3
6.233948800E-2,-5.486249924E-2,-1.677500084E-2,-3.162499983E-3
6.484564200E-2,-6.957499683E-2,5.224999972E-3,-5.637499969E-3
6.735237500E-2,-5.609999970E-2,3.987499978E-3,5.499999970E-4
6.986006800E-2,-2.062499896E-2,-2.777500078E-2,1.759999990E-2
7.236688700E-2,1.471249945E-2,-3.863750026E-2,2.378750034E-2
7.487296400E-2,3.313750029E-2,-2.158750035E-2,1.636249945E-2
7.737973100E-2,3.795000166E-2,8.937500417E-3,5.362499971E-3
7.988740300E-2,4.647500068E-2,4.441250116E-2,-1.416249946E-2
8.239425100E-2,6.118749827E-2,5.541250110E-2,-2.268750034E-2
8.490032800E-2,6.489999592E-2,2.846249938E-2,-1.773750037E-2
8.740717200E-2,4.647500068E-2,-2.062499989E-3,-7.974999957E-3
8.991478800E-2,8.662499487E-3,-9.349999949E-3,-3.162499983E-3
9.242163600E-2,-4.386249930E-2,-1.306249946E-2,-3.162499983E-3
9.492771300E-2,-7.933750004E-2,-8.112499490E-3,-1.924999990E-3
9.743455700E-2,-8.538749814E-2,-3.299999982E-3,-4.399999976E-3
9.994224900E-2,-6.215000153E-2,-2.406249940E-2,9.074999951E-3
1.024490210E-1,-2.433750033E-2,-4.729999974E-2,2.131249942E-2
1.049550980E-1,1.113750041E-2,-3.011249937E-2,2.007500082E-2
1.074619570E-1,2.942499891E-2,-4.537499975E-3,1.154999994E-2
1.099696490E-1,3.795000166E-2,2.364999987E-2,-6.737499963E-3
1.124764200E-1,4.771250114E-2,4.317500070E-2,-1.773750037E-2
1.149825640E-1,5.389999971E-2,3.093750030E-2,-1.539999992E-2
1.174893310E-1,5.266249925E-2,-2.062499989E-3,-6.874999963E-4
1.199970380E-1,2.942499891E-2,-1.306249946E-2,3.024999984E-3
1.225040400E-1,-1.086249948E-2,4.124999978E-4,-6.874999963E-4
1.250099630E-1,-4.386249930E-2,7.699999958E-3,-7.974999957E-3
1.275167060E-1,-5.486249924E-2,1.622499898E-2,-1.539999992E-2
1.300243980E-1,-4.015000165E-2,-8.249999955E-4,-1.044999994E-2
1.325314000E-1,-1.333750039E-2,-3.506249934E-2,6.599999964E-3
1.350373230E-1,-2.337499987E-3,-4.235000163E-2,1.883750036E-2
1.375443210E-1,-4.812499974E-3,-2.529999986E-2,2.378750034E-2
1.400517830E-1,-1.209999993E-2,-8.249999955E-4,1.636249945E-2
1.425587850E-1,-2.337499987E-3,2.598750032E-2,5.499999970E-4
1.450647080E-1,1.966249943E-2,3.093750030E-2,-1.168750040E-2
1.475717060E-1,4.289999977E-2,6.462499965E-3,-1.044999994E-2
1.500793880E-1,5.142499879E-2,-5.774999969E-3,-7.974999957E-3
1.525861600E-1,3.437500075E-2,5.224999972E-3,-1.416249946E-2
1.550923130E-1,6.187499966E-3,2.117500082E-2,-1.649999991E-2
1.575990810E-1,-1.938750036E-2,3.093750030E-2,-2.144999988E-2
1.601067730E-1,-2.804999985E-2,1.869999990E-2,-1.292499993E-2
1.626135490E-1,-2.557500079E-2,-3.135000169E-2,9.074999951E-3
1.651197030E-1,-1.938750036E-2,-5.953750014E-2,2.736249939E-2
1.676264560E-1,-1.938750036E-2,-4.606249928E-2,3.231250122E-2
1.701342260E-1,-2.309999987E-2,-1.553750038E-2,2.254999988E-2
1.726409970E-1,-1.209999993E-2,1.746249944E-2,5.362499971E-3
1.751470740E-1,1.361249946E-2,3.341250122E-2,-1.168750040E-2
1.776539180E-1,4.413750023E-2,1.869999990E-2,-1.416249946E-2
1.801616100E-1,5.747500062E-2,-5.774999969E-3,-9.212499484E-3
1.826683810E-1,4.042499885E-2,-3.299999982E-3,-7.974999957E-3
1.851744580E-1,1.374999993E-4,3.987499978E-3,-9.212499484E-3
1.876813020E-1,-3.781250119E-2,1.746249944E-2,-1.044999994E-2
1.901889180E-1,-4.881250113E-2,1.993750036E-2,-1.044999994E-2
1.926959970E-1,-3.409999982E-2,-3.299999982E-3,-3.162499983E-3
1.952018430E-1,-4.812499974E-3,-3.629999980E-2,1.154999994E-2
1.977086490E-1,1.237499993E-2,-3.863750026E-2,1.883750036E-2
2.002163410E-1,1.237499993E-2,-1.677500084E-2,1.636249945E-2
2.027233430E-1,6.187499966E-3,1.141249947E-2,6.599999964E-3
2.052292670E-1,1.361249946E-2,3.341250122E-2,-7.974999957E-3
2.077362650E-1,2.337500080E-2,1.622499898E-2,-6.737499963E-3
2.102437100E-1,2.571249940E-2,-1.182499994E-2,3.024999984E-3
2.127507120E-1,7.424999960E-3,-2.406249940E-2,5.362499971E-3
2.152566350E-1,-2.062499896E-2,-5.774999969E-3,1.787499990E-3
2.177636330E-1,-3.904999793E-2,1.498750038E-2,-1.416249946E-2
2.202713250E-1,-3.533750027E-2,3.093750030E-2,-2.144999988E-2
2.227780970E-1,-1.209999993E-2,2.117500082E-2,-2.144999988E-2
2.252840200E-1,1.842499897E-2,-1.553750038E-2,-4.399999976E-3
2.277910180E-1,3.547500074E-2,-3.258749843E-2,1.031249948E-2
2.302987100E-1,2.694999985E-2,-2.282499894E-2,1.636249945E-2
2.328054810E-1,2.474999987E-3,-2.062499989E-3,2.007500082E-2
2.353116350E-1,-1.209999993E-2,1.498750038E-2,1.278750040E-2
2.378184020E-1,-7.287499961E-3,1.746249944E-2,7.837500423E-3
2.403260950E-1,8.662499487E-3,-6.874999963E-3,6.599999964E-3
2.428328420E-1,1.842499897E-2,-2.158750035E-2,4.262499977E-3
2.453389960E-1,7.424999960E-3,-1.058750041E-2,-4.399999976E-3
2.478457630E-1,-1.457499992E-2,1.388750039E-2,-2.021249942E-2
2.503534740E-1,-3.038750030E-2,3.464999795E-2,-2.997500077E-2
2.528603230E-1,-2.681249939E-2,2.722499892E-2,-2.873750031E-2
2.553664190E-1,-9.624999948E-3,-6.874999963E-3,-7.974999957E-3
2.578732640E-1,6.187499966E-3,-3.753750026E-2,1.402499992E-2
2.603808790E-1,1.113750041E-2,-3.382499889E-2,2.502499893E-2
2.628877270E-1,1.374999993E-3,-1.182499994E-2,2.254999988E-2
2.653938040E-1,-1.099999994E-3,1.993750036E-2,7.837500423E-3
2.679006480E-1,1.594999991E-2,2.722499892E-2,5.499999970E-4
2.704083410E-1,3.547500074E-2,1.017499994E-2,-4.399999976E-3
2.729151120E-1,4.523750022E-2,-1.182499994E-2,-3.162499983E-3
2.754211890E-1,2.323750034E-2,-1.182499994E-2,-4.399999976E-3
2.779280330E-1,-1.828750037E-2,4.124999978E-4,-9.212499484E-3
2.804357060E-1,-5.238749832E-2,1.388750039E-2,-1.416249946E-2
2.829427080E-1,-6.215000153E-2,1.869999990E-2,-1.649999991E-2
2.854486450E-1,-4.028749838E-2,-6.874999963E-3,-5.637499969E-3
2.879556430E-1,-3.574999981E-3,-3.382499889E-2,1.031249948E-2
2.904631050E-1,2.447500080E-2,-2.887500077E-2,1.636249945E-2
2.929701070E-1,3.066249937E-2,-5.774999969E-3,1.402499992E-2
2.954760300E-1,2.571249940E-2,1.869999990E-2,5.499999970E-4
2.979828070E-1,2.323750034E-2,3.341250122E-2,-6.737499963E-3
3.004905000E-1,2.818750031E-2,1.498750038E-2,-3.162499983E-3
3.029974970E-1,2.818750031E-2,-1.677500084E-2,9.074999951E-3
3.055034200E-1,9.899999946E-3,-2.529999986E-2,1.526249945E-2
3.080104180E-1,-2.309999987E-2,-1.058750041E-2,6.599999964E-3
3.105178790E-1,-4.757500067E-2,1.017499994E-2,-5.637499969E-3
3.130248810E-1,-5.238749832E-2,1.993750036E-2,-2.021249942E-2
3.155310350E-1,-2.804999985E-2,8.937500417E-3,-1.649999991E-2
3.180378020E-1,3.712499980E-3,-1.911249943E-2,-5.637499969E-3
3.205454950E-1,2.447500080E-2,-2.529999986E-2,6.599999964E-3
3.230523430E-1,2.694999985E-2,-1.429999992E-2,9.074999951E-3
3.255584200E-1,1.113750041E-2,7.699999958E-3,5.362499971E-3
3.280651870E-1,4.949999973E-3,2.722499892E-2,1.787499990E-3
3.305728790E-1,1.113750041E-2,1.993750036E-2,-1.924999990E-3
3.330796500E-1,2.694999985E-2,-8.112499490E-3,1.787499990E-3
3.355858040E-1,2.818750031E-2,-2.158750035E-2,6.599999964E-3
3.380925670E-1,8.662499487E-3,-9.349999949E-3,3.024999984E-3
3.406002590E-1,-1.581249945E-2,1.017499994E-2,-9.212499484E-3
3.431071020E-1,-3.409999982E-2,2.846249938E-2,-2.144999988E-2
3.456131790E-1,-3.162499890E-2,1.622499898E-2,-2.021249942E-2
3.481200230E-1,-1.704999991E-2,-2.406249940E-2,-1.924999990E-3
3.506277150E-1,1.374999993E-4,-4.235000163E-2,1.402499992E-2
3.531344870E-1,3.712499980E-3,-2.406249940E-2,2.007500082E-2
3.556405640E-1,2.474999987E-3,3.987499978E-3,1.278750040E-2
3.581474080E-1,6.187499966E-3,2.846249938E-2,-1.924999990E-3
3.606551000E-1,2.323750034E-2,2.846249938E-2,-1.044999994E-2
3.631618710E-1,4.042499885E-2,5.224999972E-3,-5.637499969E-3
3.656680250E-1,4.413750023E-2,-1.429999992E-2,3.024999984E-3
3.681747920E-1,2.323750034E-2,-1.553750038E-2,6.599999964E-3
3.706824850E-1,-1.086249948E-2,4.124999978E-4,5.499999970E-4
3.731895060E-1,-4.757500067E-2,1.388750039E-2,-9.212499484E-3
3.756954290E-1,-5.486249924E-2,1.498750038E-2,-1.044999994E-2
3.782021960E-1,-3.533750027E-2,-9.349999949E-3,-5.637499969E-3
3.807098880E-1,-4.812499974E-3,-3.506249934E-2,1.031249948E-2
3.832169100E-1,1.718750037E-2,-2.887500077E-2,1.526249945E-2
3.857228330E-1,2.089999989E-2,-3.299999982E-3,7.837500423E-3
3.882298310E-1,1.718750037E-2,2.846249938E-2,-4.399999976E-3
3.907372930E-1,2.213750035E-2,3.698749840E-2,-1.539999992E-2
3.932442950E-1,3.189999983E-2,1.388750039E-2,-7.974999957E-3
3.957502320E-1,2.942499891E-2,-1.787500083E-2,5.362499971E-3
3.982572300E-1,8.662499487E-3,-2.158750035E-2,1.402499992E-2
4.007649220E-1,-2.433750033E-2,-4.537499975E-3,5.362499971E-3
4.032717180E-1,-4.633750021E-2,1.746249944E-2,-7.974999957E-3
4.057776410E-1,-4.138749838E-2,2.488750033E-2,-2.021249942E-2
4.082846390E-1,-1.457499992E-2,1.649999991E-3,-1.649999991E-2
4.107923740E-1,1.471249945E-2,-3.135000169E-2,1.787499990E-3
4.132991450E-1,2.694999985E-2,-3.011249937E-2,1.278750040E-2
4.158052990E-1,1.718750037E-2,-1.182499994E-2,1.636249945E-2
4.183120810E-1,1.374999993E-4,8.937500417E-3,1.154999994E-2
4.208198510E-1,-4.812499974E-3,2.722499892E-2,5.499999970E-4
4.233266220E-1,4.949999973E-3,1.622499898E-2,-4.399999976E-3
4.258326990E-1,2.213750035E-2,-1.058750041E-2,1.787499990E-3
4.283394660E-1,2.571249940E-2,-2.034999989E-2,5.362499971E-3
4.308472350E-1,1.113750041E-2,-3.299999982E-3,-1.924999990E-3
4.333540060E-1,-1.457499992E-2,1.622499898E-2,-1.539999992E-2
4.358600830E-1,-3.409999982E-2,2.722499892E-2,-2.268750034E-2
4.383669280E-1,-2.928750031E-2,8.937500417E-3,-1.649999991E-2
4.408746200E-1,-9.624999948E-3,-2.887500077E-2,4.262499977E-3
4.433813910E-1,2.474999987E-3,-4.235000163E-2,2.131249942E-2
4.458875450E-1,3.712499980E-3,-2.406249940E-2,2.502499893E-2
4.483943160E-1,-2.337499987E-3,1.017499994E-2,1.278750040E-2
4.509020080E-1,4.949999973E-3,3.464999795E-2,-6.737499963E-3
4.534090100E-1,2.818750031E-2,2.846249938E-2,-1.649999991E-2
4.559149490E-1,4.647500068E-2,4.124999978E-4,-1.292499993E-2
4.584219470E-1,4.166249931E-2,-1.058750041E-2,-4.399999976E-3
4.609294080E-1,9.899999946E-3,-8.112499490E-3,-1.924999990E-3
4.634364100E-1,-2.681249939E-2,5.224999972E-3,-1.924999990E-3
4.659423420E-1,-5.486249924E-2,1.622499898E-2,-6.737499963E-3
4.684493400E-1,-5.486249924E-2,1.017499994E-2,-9.212499484E-3
4.709568020E-1,-2.928750031E-2,-2.282499894E-2,1.787499990E-3
4.734638040E-1,3.712499980E-3,-4.235000163E-2,1.154999994E-2
4.759697270E-1,2.818750031E-2,-2.282499894E-2,1.526249945E-2
4.784767590E-1,2.942499891E-2,7.699999958E-3,7.837500423E-3
4.809844510E-1,2.447500080E-2,3.698749840E-2,-5.637499969E-3
4.834912220E-1,2.447500080E-2,3.464999795E-2,-1.044999994E-2
4.859973850E-1,2.571249940E-2,4.124999978E-4,-3.162499983E-3
4.885041530E-1,2.089999989E-2,-3.135000169E-2,1.031249948E-2
4.910118450E-1,-2.337499987E-3,-2.653750032E-2,1.402499992E-2
4.935186930E-1,-3.162499890E-2,-8.249999955E-4,1.787499990E-3
4.960247700E-1,-5.115000159E-2,2.117500082E-2,-9.212499484E-3
4.985315370E-1,-4.262499884E-2,2.488750033E-2,-1.897500083E-2
5.010392290E-1,-1.086249948E-2,-4.537499975E-3,-1.416249946E-2
5.035460930E-1,2.213750035E-2,-3.011249937E-2,-6.874999963E-4
5.060521700E-1,3.313750029E-2,-2.887500077E-2,9.074999951E-3
5.085590140E-1,1.966249943E-2,-6.874999963E-3,1.278750040E-2
5.110666290E-1,-2.337499987E-3,1.993750036E-2,7.837500423E-3
5.135734960E-1,-3.574999981E-3,3.217500076E-2,1.787499990E-3
5.160795730E-1,1.113750041E-2,1.017499994E-2,5.499999970E-4
5.185864170E-1,2.571249940E-2,-2.034999989E-2,6.599999964E-3
5.210941100E-1,2.323750034E-2,-2.034999989E-2,3.024999984E-3
5.236008810E-1,1.374999993E-3,4.124999978E-4,-6.737499963E-3
5.261069720E-1,-2.186249942E-2,2.488750033E-2,-1.773750037E-2
5.286138160E-1,-3.409999982E-2,3.341250122E-2,-2.639999986E-2
5.311214990E-1,-2.557500079E-2,6.462499965E-3,-1.416249946E-2
5.336282710E-1,-7.287499961E-3,-3.863750026E-2,7.837500423E-3
5.361344240E-1,3.712499980E-3,-4.358749837E-2,2.378750034E-2
5.386411920E-1,4.949999973E-3,-2.282499894E-2,2.131249942E-2
5.411488840E-1,1.374999993E-3,1.017499994E-2,1.154999994E-2
5.436558860E-1,8.662499487E-3,3.217500076E-2,-1.924999990E-3
5.461618090E-1,2.447500080E-2,2.598750032E-2,-6.737499963E-3
5.486685960E-1,4.413750023E-2,4.124999978E-4,-1.924999990E-3
5.511762890E-1,4.042499885E-2,-1.429999992E-2,-6.874999963E-4
5.536832910E-1,8.662499487E-3,-9.349999949E-3,-3.162499983E-3
5.561892140E-1,-3.409999982E-2,3.987499978E-3,-7.974999957E-3
5.586962120E-1,-5.733750015E-2,1.622499898E-2,-1.292499993E-2
5.612036780E-1,-5.004999787E-2,6.462499965E-3,-6.737499963E-3
5.637107570E-1,-2.186249942E-2,-1.911249943E-2,6.599999964E-3
5.662166030E-1,9.899999946E-3,-3.753750026E-2,1.526249945E-2
5.687236010E-1,2.213750035E-2,-2.158750035E-2,1.154999994E-2
5.712312940E-1,2.213750035E-2,7.699999958E-3,1.787499990E-3
5.737380940E-1,2.323750034E-2,3.588749841E-2,-1.168750040E-2
5.762440170E-1,2.942499891E-2,3.217500076E-2,-1.416249946E-2
5.787510150E-1,3.313750029E-2,2.887499984E-3,-6.874999963E-4
5.812587070E-1,2.089999989E-2,-2.158750035E-2,9.074999951E-3
5.837654590E-1,-9.624999948E-3,-1.911249943E-2,1.031249948E-2
5.862716120E-1,-4.028749838E-2,4.124999978E-4,-3.162499983E-3
5.887783660E-1,-5.004999787E-2,1.746249944E-2,-1.539999992E-2
5.912861350E-1,-3.657500073E-2,2.117500082E-2,-1.897500083E-2
5.937929060E-1,-2.337499987E-3,-1.058750041E-2,-4.399999976E-3
5.962990020E-1,2.571249940E-2,-2.887500077E-2,1.031249948E-2
5.988058460E-1,3.066249937E-2,-2.034999989E-2,1.402499992E-2
6.013135380E-1,1.594999991E-2,-3.299999982E-3,1.278750040E-2
6.038203100E-1,1.374999993E-4,1.993750036E-2,4.262499977E-3
6.063264790E-1,1.374999993E-4,2.364999987E-2,-1.924999990E-3
6.088332460E-1,1.237499993E-2,5.224999972E-3,1.787499990E-3
6.113409380E-1,2.323750034E-2,-1.677500084E-2,9.074999951E-3
6.138479400E-1,1.718750037E-2,-1.429999992E-2,7.837500423E-3
6.163538630E-1,-7.287499961E-3,-8.249999955E-4,-6.737499963E-3
6.188606300E-1,-3.038750030E-2,2.117500082E-2,-2.144999988E-2
6.213678580E-1,-3.409999982E-2,2.241249941E-2,-2.639999986E-2
6.238749430E-1,-1.938750036E-2,-3.299999982E-3,-1.168750040E-2
6.263812480E-1,1.374999993E-3,-3.011249937E-2,1.402499992E-2
6.288880150E-1,8.662499487E-3,-3.135000169E-2,2.254999988E-2
6.313956920E-1,2.474999987E-3,-9.349999949E-3,2.131249942E-2
6.339026940E-1,-2.337499987E-3,1.622499898E-2,4.262499977E-3
6.364086170E-1,1.113750041E-2,2.969999984E-2,-9.212499484E-3
6.389155960E-1,3.423750028E-2,1.622499898E-2,-1.168750040E-2
6.414232890E-1,5.018749833E-2,-2.062499989E-3,-4.399999976E-3
6.439300310E-1,3.671250120E-2,-8.112499490E-3,3.024999984E-3
6.464359540E-1,-2.337499987E-3,4.124999978E-4,-3.162499983E-3
6.489429330E-1,-4.509999976E-2,7.699999958E-3,-7.974999957E-3
6.514506250E-1,-6.462500244E-2,1.388750039E-2,-1.539999992E-2
6.539573970E-1,-4.881250113E-2,-5.774999969E-3,-9.212499484E-3
6.564635510E-1,-8.524999954E-3,-3.258749843E-2,9.074999951E-3
6.589703180E-1,2.089999989E-2,-2.887500077E-2,1.759999990E-2
6.614780100E-1,3.066249937E-2,-6.874999963E-3,1.636249945E-2
6.639848580E-1,2.571249940E-2,1.869999990E-2,1.787499990E-3
6.664909350E-1,2.213750035E-2,2.969999984E-2,-9.212499484E-3
6.689977020E-1,2.571249940E-2,1.388750039E-2,-9.212499484E-3
6.715053950E-1,2.323750034E-2,-1.306249946E-2,4.262499977E-3
6.740122090E-1,9.899999946E-3,-2.282499894E-2,1.402499992E-2
6.765182860E-1,-1.828750037E-2,-9.349999949E-3,1.031249948E-2
6.790250380E-1,-4.262499884E-2,1.264999993E-2,-3.162499983E-3
6.815327300E-1,-4.509999976E-2,2.241249941E-2,-2.021249942E-2
6.840395840E-1,-2.681249939E-2,6.462499965E-3,-2.144999988E-2
6.865456600E-1,7.424999960E-3,-2.034999989E-2,-7.974999957E-3
6.890524670E-1,2.942499891E-2,-3.135000169E-2,6.599999964E-3
6.915601590E-1,2.447500080E-2,-1.553750038E-2,1.636249945E-2
6.940669300E-1,6.187499966E-3,6.462499965E-3,1.154999994E-2
6.965730070E-1,-8.524999954E-3,2.722499892E-2,3.024999984E-3
6.990798510E-1,1.374999993E-3,1.869999990E-2,-4.399999976E-3
7.015875440E-1,2.213750035E-2,-8.112499490E-3,-6.874999963E-4
7.040943150E-1,3.066249937E-2,-1.787500083E-2,4.262499977E-3
7.066004690E-1,1.718750037E-2,-6.874999963E-3,-6.874999963E-4
7.091074670E-1,-1.209999993E-2,1.498750038E-2,-9.212499484E-3
7.116149280E-1,-3.286249936E-2,3.341250122E-2,-2.268750034E-2
7.141219300E-1,-3.162499890E-2,2.117500082E-2,-2.144999988E-2
7.166278530E-1,-1.704999991E-2,-2.406249940E-2,-1.924999990E-3
7.191346060E-1,1.374999993E-4,-4.853750020E-2,1.883750036E-2
7.216422980E-1,2.474999987E-3,-3.382499889E-2,2.736249939E-2
7.241493000E-1,-3.574999981E-3,-2.062499989E-3,2.007500082E-2
7.266552230E-1,1.374999993E-3,2.722499892E-2,4.262499977E-3
7.291622210E-1,1.594999991E-2,3.698749840E-2,-9.212499484E-3
7.316699130E-1,4.042499885E-2,1.141249947E-2,-1.292499993E-2
7.341766840E-1,5.018749833E-2,-1.429999992E-2,-5.637499969E-3
7.366828380E-1,3.437500075E-2,-1.429999992E-2,-6.874999963E-4
7.391896060E-1,-7.149999961E-3,-2.062499989E-3,5.499999970E-4
7.416972980E-1,-4.991250113E-2,1.388750039E-2,-4.399999976E-3
7.442040690E-1,-6.586249918E-2,1.622499898E-2,-6.737499963E-3
7.467102230E-1,-4.633750021E-2,-7.012499962E-3,-6.874999963E-4
7.492169900E-1,-7.149999961E-3,-3.753750026E-2,7.837500423E-3
7.517246830E-1,2.337500080E-2,-3.135000169E-2,1.278750040E-2
7.542314540E-1,3.189999983E-2,-3.299999982E-3,4.124999978E-3
7.567376080E-1,2.461249940E-2,3.217500076E-2,-5.637499969E-3
7.592443750E-1,2.337500080E-2,3.946249932E-2,-1.539999992E-2
7.617520670E-1,2.818750031E-2,1.498750038E-2,-7.974999957E-3
7.642589150E-1,2.694999985E-2,-1.801249944E-2,6.599999964E-3
7.667649920E-1,2.612499986E-3,-2.887500077E-2,1.402499992E-2
7.692718360E-1,-3.286249936E-2,-1.058750041E-2,9.074999951E-3
7.717794960E-1,-5.238749832E-2,1.388750039E-2,-7.974999957E-3
7.742862670E-1,-4.386249930E-2,2.598750032E-2,-1.663750038E-2
7.767923480E-1,-1.209999993E-2,1.017499994E-2,-1.773750037E-2
7.792991920E-1,2.337500080E-2,-2.158750035E-2,-1.924999990E-3
7.818068840E-1,3.795000166E-2,-2.887500077E-2,7.837500423E-3
7.843136420E-1,2.461249940E-2,-1.429999992E-2,1.402499992E-2
7.868197950E-1,5.087499972E-3,6.462499965E-3,1.278750040E-2
7.893265630E-1,-8.387500420E-3,2.474999987E-2,5.362499971E-3
7.918342550E-1,-3.574999981E-3,1.622499898E-2,4.124999978E-3
7.943412570E-1,1.237499993E-2,-1.058750041E-2,1.031249948E-2
7.968471800E-1,2.213750035E-2,-2.158750035E-2,9.074999951E-3
7.993539470E-1,7.424999960E-3,-1.058750041E-2,-1.924999990E-3
8.018616400E-1,-1.457499992E-2,1.498750038E-2,-1.663750038E-2
8.043686420E-1,-2.914999984E-2,3.093750030E-2,-2.639999986E-2
8.068745650E-1,-2.186249942E-2,1.993750036E-2,-2.144999988E-2
8.093815820E-1,-4.812499974E-3,-1.911249943E-2,3.024999984E-3
8.118890430E-1,6.187499966E-3,-3.753750026E-2,2.131249942E-2
8.143960450E-1,2.612499986E-3,-3.258749843E-2,2.502499893E-2
8.169019780E-1,-8.387500420E-3,-2.062499989E-3,1.636249945E-2
8.194089760E-1,-2.337499987E-3,2.846249938E-2,-3.162499983E-3
8.219166740E-1,2.213750035E-2,2.969999984E-2,-1.044999994E-2
8.244234450E-1,4.661250114E-2,8.937500417E-3,-9.212499484E-3
8.269293720E-1,4.661250114E-2,-8.112499490E-3,-3.162499983E-3
8.294363700E-1,1.594999991E-2,-7.012499962E-3,-3.162499983E-3
8.319440620E-1,-2.433750033E-2,4.124999978E-4,-6.737499963E-3
8.344508340E-1,-5.362499878E-2,1.264999993E-2,-9.212499484E-3
8.369569870E-1,-5.609999970E-2,1.141249947E-2,-9.212499484E-3
8.394637550E-1,-3.162499890E-2,-1.801249944E-2,3.024999984E-3
8.419714470E-1,3.849999979E-3,-3.629999980E-2,1.759999990E-2
8.444782950E-1,2.461249940E-2,-2.406249940E-2,2.007500082E-2
8.469843720E-1,2.694999985E-2,1.649999991E-3,1.031249948E-2
8.494911390E-1,2.337500080E-2,2.969999984E-2,-6.737499963E-3
8.519988520E-1,2.584999986E-2,3.464999795E-2,-1.292499993E-2
8.545057000E-1,2.942499891E-2,5.224999972E-3,-6.737499963E-3
8.570117770E-1,2.337500080E-2,-2.034999989E-2,7.837500423E-3
8.595186160E-1,-1.099999994E-3,-2.158750035E-2,1.402499992E-2
8.620262310E-1,-3.409999982E-2,-3.299999982E-3,5.362499971E-3
8.645330840E-1,-5.609999970E-2,1.498750038E-2,-9.212499484E-3
8.670391610E-1,-4.867500067E-2,1.746249944E-2,-1.897500083E-2
8.695459650E-1,-1.333750039E-2,-7.012499962E-3,-1.168750040E-2
8.720536580E-1,2.213750035E-2,-2.282499894E-2,1.787499990E-3
8.745606600E-1,3.684999794E-2,-1.911249943E-2,1.031249948E-2
8.770665830E-1,2.213750035E-2,-2.062499989E-3,1.278750040E-2
8.795735810E-1,2.612499986E-3,1.993750036E-2,3.024999984E-3
8.820810420E-1,-2.337499987E-3,2.241249941E-2,-3.162499983E-3
8.845880440E-1,1.113750041E-2,3.987499978E-3,-3.162499983E-3
8.870939680E-1,2.213750035E-2,-1.677500084E-2,5.362499971E-3
8.896009660E-1,1.966249943E-2,-1.306249946E-2,6.599999964E-3
8.921084270E-1,-2.337499987E-3,3.987499978E-3,-4.399999976E-3
8.946154340E-1,-2.309999987E-2,2.364999987E-2,-1.663750038E-2
8.971213570E-1,-3.286249936E-2,2.722499892E-2,-2.639999986E-2
8.996283210E-1,-2.062499896E-2,-4.537499975E-3,-1.168750040E-2
9.021360130E-1,-4.812499974E-3,-3.753750026E-2,9.074999951E-3
9.046427850E-1,5.087499972E-3,-3.629999980E-2,2.378750034E-2
9.071489580E-1,1.374999993E-3,-1.182499994E-2,2.254999988E-2
9.096557250E-1,-1.099999994E-3,1.388750039E-2,9.074999951E-3
9.121634080E-1,8.662499487E-3,3.217500076E-2,-4.399999976E-3
9.146702560E-1,2.942499891E-2,1.746249944E-2,-9.212499484E-3
9.171763230E-1,4.661250114E-2,-9.349999949E-3,-1.924999990E-3
9.196830900E-1,3.918749839E-2,-1.553750038E-2,1.787499990E-3
9.221907830E-1,6.187499966E-3,-4.537499975E-3,-6.874999963E-4
9.246976310E-1,-3.767500073E-2,8.937500417E-3,-5.637499969E-3
9.272037080E-1,-6.091250107E-2,1.869999990E-2,-1.168750040E-2
9.297105520E-1,-5.362499878E-2,1.649999991E-3,-9.212499484E-3
9.322181670E-1,-2.062499896E-2,-2.777500078E-2,3.024999984E-3
9.347250160E-1,1.484999992E-2,-3.629999980E-2,1.278750040E-2
9.372310920E-1,2.584999986E-2,-1.429999992E-2,1.154999994E-2
9.397379370E-1,2.461249940E-2,1.746249944E-2,5.499999970E-4
9.422456730E-1,2.337500080E-2,3.822499886E-2,-1.044999994E-2
9.447524440E-1,2.942499891E-2,2.722499892E-2,-1.292499993E-2
9.472585210E-1,3.066249937E-2,-9.349999949E-3,5.499999970E-4
9.497653450E-1,1.594999991E-2,-2.777500078E-2,9.074999951E-3
9.522730380E-1,-1.581249945E-2,-1.677500084E-2,9.074999951E-3
9.547798240E-1,-4.262499884E-2,7.699999958E-3,-3.162499983E-3
9.572859780E-1,-4.867500067E-2,2.846249938E-2,-1.663750038E-2
9.597927300E-1,-3.038750030E-2,1.993750036E-2,-1.897500083E-2
9.623004220E-1,3.849999979E-3,-1.553750038E-2,-1.044999994E-2
9.648074240E-1,3.189999983E-2,-3.753750026E-2,7.837500423E-3
9.673133470E-1,3.189999983E-2,-2.529999986E-2,1.512499992E-2
9.698201150E-1,1.237499993E-2,-4.537499975E-3,1.512499992E-2
9.723278070E-1,-5.912499968E-3,2.598750032E-2,7.837500423E-3
9.748348090E-1,-4.812499974E-3,2.722499892E-2,5.499999970E-4
9.773407320E-1,1.237499993E-2,1.649999991E-3,4.124999978E-3
9.798477300E-1,2.584999986E-2,-2.406249940E-2,5.362499971E-3
9.823551920E-1,1.594999991E-2,-1.911249943E-2,5.499999970E-4
9.848621890E-1,-8.387500420E-3,6.462499965E-3,-1.044999994E-2
9.873681120E-1,-2.914999984E-2,2.722499892E-2,-2.268750034E-2
9.898751100E-1,-3.038750030E-2,2.722499892E-2,-2.021249942E-2
9.923828020E-1,-1.814999990E-2,-7.012499962E-3,-6.737499963E-3
9.948895730E-1,1.374999993E-4,-3.753750026E-2,1.636249945E-2
9.973954960E-1,5.087499972E-3,-4.111250117E-2,2.378750034E-2
9.999025040E-1,1.374999993E-4,-1.306249946E-2,1.636249945E-2
1.002410197E0,-2.337499987E-3,2.474999987E-2,-6.874999963E-4
1.004916963E0,1.484999992E-2,4.069999978E-2,-1.416249946E-2
1.007423117E0,4.042499885E-2,1.993750036E-2,-1.292499993E-2
1.009929884E0,5.142499879E-2,-5.774999969E-3,-6.737499963E-3
1.012437653E0,3.313750029E-2,-1.306249946E-2,-1.924999990E-3
1.014944424E0,-8.387500420E-3,-5.774999969E-3,-3.162499983E-3
1.017450501E0,-4.991250113E-2,7.699999958E-3,-7.974999957E-3
1.019957345E0,-6.586249918E-2,1.498750038E-2,-9.212499484E-3
1.022465038E0,-4.509999976E-2,-4.537499975E-3,-1.924999990E-3
1.024971809E0,-7.149999961E-3,-3.506249934E-2,1.278750040E-2
1.027477963E0,2.213750035E-2,-2.887500077E-2,1.636249945E-2
1.029984740E0,2.818750031E-2,-5.774999969E-3,1.031249948E-2
1.032492432E0,2.584999986E-2,2.117500082E-2,-4.399999976E-3
1.034999204E0,2.461249940E-2,3.575000167E-2,-1.292499993E-2
1.037505367E0,2.942499891E-2,2.117500082E-2,-7.974999957E-3
1.040012134E0,2.818750031E-2,-1.429999992E-2,3.024999984E-3
1.042519845E0,7.424999960E-3,-2.653750032E-2,1.636249945E-2
1.045026847E0,-2.309999987E-2,-1.429999992E-2,7.837500423E-3
1.047532770E0,-5.115000159E-2,5.224999972E-3,-4.399999976E-3
1.050039537E0,-5.238749832E-2,1.869999990E-2,-1.663750038E-2
1.052547216E0,-2.557500079E-2,1.017499994E-2,-1.897500083E-2
1.055054218E0,1.237499993E-2,-1.306249946E-2,-6.737499963E-3
1.057560141E0,3.561250120E-2,-2.406249940E-2,3.024999984E-3
1.060067144E0,3.189999983E-2,-1.429999992E-2,1.154999994E-2
1.062574836E0,8.662499487E-3,5.224999972E-3,7.837500423E-3
1.065081607E0,-3.574999981E-3,2.364999987E-2,1.787499990E-3
1.067587530E0,6.187499966E-3,1.622499898E-2,1.787499990E-3
1.070094528E0,1.966249943E-2,-8.112499490E-3,6.599999964E-3
1.072602221E0,2.337500080E-2,-1.677500084E-2,7.837500423E-3
1.075108992E0,6.187499966E-3,-8.112499490E-3,-6.874999963E-4
1.077615146E0,-1.938750036E-2,1.498750038E-2,-1.416249946E-2
1.080121913E0,-3.286249936E-2,2.722499892E-2,-2.516249940E-2
1.082629605E0,-2.667500079E-2,1.498750038E-2,-2.021249942E-2
1.085136367E0,-9.624999948E-3,-2.529999986E-2,1.787499990E-3
1.087642520E0,5.087499972E-3,-4.235000163E-2,2.007500082E-2
1.090149293E0,3.849999979E-3,-2.777500078E-2,2.736249939E-2
1.092656985E0,-1.099999994E-3,-2.062499989E-3,1.759999990E-2
1.095163823E0,2.612499986E-3,2.598750032E-2,3.024999984E-3
1.097669900E0,1.842499897E-2,2.846249938E-2,-9.212499484E-3
1.100176667E0,4.289999977E-2,7.699999958E-3,-6.737499963E-3
1.102684360E0,4.784999788E-2,-1.058750041E-2,-1.924999990E-3
1.105191208E0,2.818750031E-2,-7.012499962E-3,-6.874999963E-4
1.107697285E0,-1.814999990E-2,1.649999991E-3,-5.637499969E-3
1.110204129E0,-5.733750015E-2,1.388750039E-2,-1.044999994E-2
1.112711821E0,-6.462500244E-2,1.017499994E-2,-9.212499484E-3
1.115218592E0,-3.891250119E-2,-1.677500084E-2,1.787499990E-3
1.117724746E0,1.374999993E-3,-3.382499889E-2,1.278750040E-2
1.120231514E0,2.461249940E-2,-2.529999986E-2,1.636249945E-2
1.122739206E0,2.584999986E-2,3.987499978E-3,6.599999964E-3
1.125245977E0,2.213750035E-2,3.217500076E-2,-9.212499484E-3
1.127752146E0,2.818750031E-2,3.698749840E-2,-1.663750038E-2
1.130258913E0,3.561250120E-2,3.987499978E-3,-7.974999957E-3
1.132766606E0,3.189999983E-2,-1.801249944E-2,5.362499971E-3
1.135273377E0,2.612499986E-3,-2.034999989E-2,1.154999994E-2
1.137779531E0,-3.038750030E-2,-3.299999982E-3,5.362499971E-3
1.140286298E0,-5.362499878E-2,1.264999993E-2,-9.212499484E-3
1.142793990E0,-4.633750021E-2,1.993750036E-2,-1.773750037E-2
1.145300992E0,-1.581249945E-2,-4.537499975E-3,-1.044999994E-2
1.147806910E0,1.842499897E-2,-3.135000169E-2,3.024999984E-3
1.150313908E0,3.313750029E-2,-2.529999986E-2,1.154999994E-2
1.152821370E0,2.337500080E-2,-5.774999969E-3,1.154999994E-2
1.155328372E0,7.424999960E-3,1.622499898E-2,5.362499971E-3
1.157834526E0,-1.099999994E-3,2.722499892E-2,-6.874999963E-4
1.160341293E0,6.187499966E-3,1.264999993E-2,-1.924999990E-3
1.162848985E0,2.213750035E-2,-1.553750038E-2,6.599999964E-3
1.165355756E0,2.089999989E-2,-2.158750035E-2,7.837500423E-3
1.167861680E0,2.612499986E-3,-4.537499975E-3,-6.874999963E-4
1.170368707E0,-2.557500079E-2,1.869999990E-2,-1.539999992E-2
1.172876399E0,-3.767500073E-2,2.846249938E-2,-2.268750034E-2
1.175383155E0,-2.667500079E-2,6.462499965E-3,-1.416249946E-2
1.177889309E0,-4.812499974E-3,-2.777500078E-2,5.362499971E-3
1.180396134E0,7.424999960E-3,-3.877500072E-2,2.007500082E-2
1.182903749E0,3.849999979E-3,-2.034999989E-2,1.883750036E-2
1.185410579E0,-2.337499987E-3,1.388750039E-2,7.837500423E-3
1.187916656E0,8.662499487E-3,3.822499886E-2,-9.212499484E-3
1.190423500E0,3.189999983E-2,2.474999987E-2,-1.044999994E-2
1.192931192E0,4.784999788E-2,-8.249999955E-4,-6.737499963E-3
1.195437963E0,3.918749839E-2,-1.429999992E-2,-1.924999990E-3
1.197944117E0,3.849999979E-3,-1.058750041E-2,3.024999984E-3
1.200450884E0,-3.533750027E-2,2.887499984E-3,-4.399999976E-3
1.202958577E0,-5.967500061E-2,1.622499898E-2,-7.974999957E-3
1.205465348E0,-5.115000159E-2,8.937500417E-3,-9.212499484E-3
1.207971425E0,-2.186249942E-2,-2.406249940E-2,4.124999978E-3
1.210478293E0,1.361249946E-2,-3.506249934E-2,1.402499992E-2
1.212985985E0,3.066249937E-2,-1.911249943E-2,1.512499992E-2
1.215492987E0,2.818750031E-2,8.937500417E-3,6.599999964E-3
1.217998910E0,2.213750035E-2,3.575000167E-2,-7.974999957E-3
1.220505673E0,2.213750035E-2,3.093750030E-2,-9.212499484E-3
1.223013365E0,2.461249940E-2,-2.062499989E-3,-6.874999963E-4
1.225520367E0,1.718750037E-2,-2.529999986E-2,1.154999994E-2
1.228026275E0,-9.624999948E-3,-2.158750035E-2,1.154999994E-2
1.230533273E0,-4.015000165E-2,4.124999978E-4,1.787499990E-3
1.233040965E0,-4.991250113E-2,2.117500082E-2,-1.292499993E-2
1.235547737E0,-3.409999982E-2,1.993750036E-2,-2.144999988E-2
1.238053660E0,1.374999993E-4,-7.012499962E-3,-1.044999994E-2
1.240560658E0,2.708750032E-2,-3.011249937E-2,5.362499971E-3
1.243068350E0,3.066249937E-2,-2.282499894E-2,1.402499992E-2
1.245575121E0,1.237499993E-2,-5.774999969E-3,1.512499992E-2
1.248081275E0,-4.674999975E-3,2.241249941E-2,5.362499971E-3
1.250588047E0,1.374999993E-3,2.722499892E-2,-1.924999990E-3
1.253095740E0,1.608750038E-2,6.462499965E-3,-1.924999990E-3
1.255602511E0,2.708750032E-2,-1.553750038E-2,1.787499990E-3
1.258108665E0,1.608750038E-2,-1.429999992E-2,1.787499990E-3
1.260615432E0,-7.149999961E-3,5.224999972E-3,-1.044999994E-2
1.263123124E0,-2.914999984E-2,2.364999987E-2,-1.897500083E-2
1.265629972E0,-3.409999982E-2,2.722499892E-2,-2.144999988E-2
1.268136002E0,-2.062499896E-2,-7.012499962E-3,-4.399999976E-3
1.270642770E0,-2.337499987E-3,-4.235000163E-2,1.636249945E-2
1.273150462E0,2.612499986E-3,-3.987500072E-2,2.612499893E-2
1.275657310E0,2.612499986E-3,-1.306249946E-2,2.378750034E-2
1.278163387E0,1.374999993E-3,1.993750036E-2,4.124999978E-3
1.280670231E0,1.484999992E-2,3.575000167E-2,-6.874999963E-3
1.283177923E0,3.561250120E-2,2.474999987E-2,-1.044999994E-2
1.285684695E0,5.018749833E-2,-3.299999982E-3,-5.637499969E-3
1.288190849E0,3.932499886E-2,-1.677500084E-2,-1.924999990E-3
1.290697616E0,-3.437499981E-3,-9.349999949E-3,-1.924999990E-3
1.293205289E0,-4.619999975E-2,3.987499978E-3,-4.399999976E-3
1.295712291E0,-6.586249918E-2,1.141249947E-2,-6.874999963E-3
1.298218213E0,-5.115000159E-2,4.124999978E-4,-3.162499983E-3
1.300724980E0,-1.443750039E-2,-2.653750032E-2,5.362499971E-3
1.303232673E0,1.608750038E-2,-3.258749843E-2,1.278750040E-2
1.305739459E0,2.942499891E-2,-1.306249946E-2,6.599999964E-3
1.308245613E0,2.708750032E-2,1.993750036E-2,-4.399999976E-3
1.310752611E0,2.832499892E-2,4.193750024E-2,-1.168750040E-2
1.313260072E0,3.189999983E-2,2.722499892E-2,-1.044999994E-2
1.315767074E0,3.189999983E-2,-5.774999969E-3,3.024999984E-3
1.318272982E0,1.113750041E-2,-2.653750032E-2,1.402499992E-2
1.320779980E0,-2.186249942E-2,-1.801249944E-2,9.074999951E-3
1.323287673E0,-4.991250113E-2,2.749999985E-3,5.499999970E-4
1.325794444E0,-5.486249924E-2,2.364999987E-2,-1.416249946E-2
1.328300598E0,-3.162499890E-2,1.746249944E-2,-1.663750038E-2
1.330807365E0,6.324999966E-3,-1.429999992E-2,-7.974999957E-3
1.333315057E0,3.313750029E-2,-3.135000169E-2,5.362499971E-3
1.335821829E0,3.189999983E-2,-2.034999989E-2,1.154999994E-2
1.338327983E0,1.361249946E-2,4.124999978E-4,1.154999994E-2
1.340834750E0,-1.099999994E-3,2.241249941E-2,5.362499971E-3
1.343342457E0,-1.099999994E-3,2.474999987E-2,1.787499990E-3
1.345849228E0,1.237499993E-2,4.124999978E-4,3.024999984E-3
1.348355382E0,2.089999989E-2,-2.282499894E-2,6.599999964E-3
1.350862244E0,1.484999992E-2,-1.801249944E-2,5.499999970E-4
1.353369860E0,-4.674999975E-3,7.699999958E-3,-1.044999994E-2
1.355876727E0,-2.543750033E-2,2.969999984E-2,-2.392499894E-2
1.358382804E0,-2.914999984E-2,2.846249938E-2,-2.268750034E-2
1.360889648E0,-1.691249944E-2,-7.012499962E-3,-7.974999957E-3
1.363397340E0,-2.337499987E-3,-3.987500072E-2,1.402499992E-2
1.365904112E0,5.087499972E-3,-3.877500072E-2,2.254999988E-2
1.368410188E0,-1.099999994E-3,-1.306249946E-2,1.759999990E-2
1.370917033E0,1.374999993E-3,2.241249941E-2,4.124999978E-3
1.373424725E0,1.732499897E-2,3.698749840E-2,-9.212499484E-3
1.375931496E0,3.808749840E-2,1.746249944E-2,-9.212499484E-3
1.378437650E0,4.537500069E-2,-8.112499490E-3,-5.637499969E-3
1.380944417E0,3.189999983E-2,-1.306249946E-2,-4.399999976E-3
1.383452110E0,-5.912499968E-3,-4.537499975E-3,-6.874999963E-3
1.385959118E0,-4.386249930E-2,1.264999993E-2,-1.044999994E-2
1.388465041E0,-5.719999969E-2,1.869999990E-2,-9.212499484E-3
1.390971808E0,-4.262499884E-2,-4.537499975E-3,-1.924999990E-3
1.393479500E0,-1.086249948E-2,-3.629999980E-2,1.402499992E-2
1.395986502E0,1.237499993E-2,-3.753750026E-2,1.759999990E-2
1.398492425E0,2.337500080E-2,-1.306249946E-2,1.278750040E-2
1.400999423E0,2.584999986E-2,1.869999990E-2,-1.924999990E-3
1.403506890E0,2.832499892E-2,4.069999978E-2,-1.416249946E-2
1.406013863E0,2.942499891E-2,2.598750032E-2,-1.044999994E-2
1.408519786E0,2.832499892E-2,-9.349999949E-3,3.024999984E-3
1.411026784E0,9.899999946E-3,-2.777500078E-2,1.154999994E-2
1.413534476E0,-2.433750033E-2,-1.677500084E-2,7.837500423E-3
1.416041247E0,-4.743750021E-2,5.224999972E-3,-3.162499983E-3
1.418547401E0,-4.619999975E-2,2.364999987E-2,-1.539999992E-2
1.421054169E0,-2.543750033E-2,1.264999993E-2,-1.663750038E-2
1.423561861E0,3.849999979E-3,-1.677500084E-2,-1.924999990E-3
1.426068632E0,2.461249940E-2,-3.135000169E-2,9.074999951E-3
1.428574786E0,2.337500080E-2,-2.034999989E-2,1.154999994E-2
1.431081567E0,8.662499487E-3,2.749999985E-3,7.837500423E-3
1.433589336E0,2.612499986E-3,2.722499892E-2,-3.162499983E-3
1.436096108E0,9.899999946E-3,2.969999984E-2,-5.637499969E-3
1.438602185E0,2.213750035E-2,-2.062499989E-3,5.499999970E-4
1.441108991E0,2.584999986E-2,-2.282499894E-2,5.362499971E-3
1.443616760E0,9.899999946E-3,-1.677500084E-2,1.787499990E-3
1.446123544E0,-1.567500085E-2,3.987499978E-3,-6.874999963E-3
1.448629698E0,-3.162499890E-2,2.722499892E-2,-1.897500083E-2
1.451136465E0,-3.162499890E-2,2.598750032E-2,-2.021249942E-2
1.453644158E0,-1.567500085E-2,-1.182499994E-2,-4.399999976E-3
1.456151160E0,1.374999993E-3,-4.358749837E-2,1.402499992E-2
1.458657006E0,1.374999993E-3,-3.382499889E-2,2.488750033E-2
1.461163850E0,1.374999993E-3,-9.349999949E-3,1.883750036E-2
1.463671542E0,6.324999966E-3,2.241249941E-2,3.024999984E-3
1.466178544E0,1.966249943E-2,3.464999795E-2,-7.974999957E-3
1.468684467E0,3.808749840E-2,1.869999990E-2,-1.044999994E-2
1.471191470E0,4.661250114E-2,-1.182499994E-2,-6.874999963E-4
1.473698932E0,2.832499892E-2,-1.677500084E-2,3.024999984E-3
1.476205939E0,-1.086249948E-2,-5.774999969E-3,5.499999970E-4
1.478711862E0,-4.619999975E-2,7.699999958E-3,-5.637499969E-3
1.481218855E0,-6.091250107E-2,1.746249944E-2,-1.292499993E-2
1.483726547E0,-4.138749838E-2,1.649999991E-3,-6.874999963E-3
1.486233310E0,-8.387500420E-3,-2.529999986E-2,6.599999964E-3
1.488739233E0,1.842499897E-2,-3.382499889E-2,1.512499992E-2
1.491246231E0,2.584999986E-2,-1.182499994E-2,1.031249948E-2
1.493753923E0,2.337500080E-2,1.993750036E-2,5.499999970E-4
1.496260694E0,2.337500080E-2,3.822499886E-2,-1.044999994E-2
1.498766848E0,3.066249937E-2,2.364999987E-2,-9.212499484E-3
1.501273615E0,2.708750032E-2,-1.182499994E-2,3.024999984E-3
1.503781308E0,9.899999946E-3,-2.777500078E-2,7.837500423E-3
1.506288156E0,-2.186249942E-2,-1.306249946E-2,5.362499971E-3
1.508794233E0,-4.262499884E-2,1.141249947E-2,-4.399999976E-3
1.511301000E0,-4.262499884E-2,2.364999987E-2,-1.539999992E-2
1.513808687E0,-2.062499896E-2,1.622499898E-2,-1.663750038E-2
1.516315535E0,7.424999960E-3,-2.034999989E-2,-3.162499983E-3
1.518821593E0,2.708750032E-2,-3.258749843E-2,7.837500423E-3
1.521328438E0,2.089999989E-2,-2.034999989E-2,1.402499992E-2
1.523836048E0,6.324999966E-3,4.124999978E-4,1.278750040E-2
1.526342896E0,-2.337499987E-3,2.241249941E-2,6.599999964E-3
1.528848959E0,1.374999993E-4,2.364999987E-2,5.499999970E-4
1.531355803E0,1.608750038E-2,4.124999978E-4,4.124999978E-3
1.533863496E0,2.461249940E-2,-2.158750035E-2,5.362499971E-3
1.536370267E0,1.484999992E-2,-1.677500084E-2,1.787499990E-3
1.538876344E0,-1.086249948E-2,5.224999972E-3,-9.212499484E-3
1.541383188E0,-2.914999984E-2,2.846249938E-2,-2.021249942E-2
1.543890880E0,-2.791249938E-2,2.969999984E-2,-1.897500083E-2
1.546397651E0,-1.333750039E-2,-5.774999969E-3,-5.637499969E-3
1.548903805E0,1.374999993E-3,-4.111250117E-2,1.512499992E-2
1.551410572E0,1.374999993E-3,-3.877500072E-2,2.488750033E-2
1.553918265E0,-5.912499968E-3,-1.306249946E-2,2.007500082E-2
1.556425256E0,-1.099999994E-3,2.364999987E-2,4.124999978E-3
1.558931179E0,1.842499897E-2,4.317500070E-2,-1.168750040E-2
1.561438177E0,4.042499885E-2,2.117500082E-2,-1.168750040E-2
1.563945638E0,4.908749834E-2,-8.112499490E-3,-7.974999957E-3
1.566452640E0,2.942499891E-2,-1.677500084E-2,-3.162499983E-3
1.568958564E0,-8.387500420E-3,-5.774999969E-3,-1.924999990E-3
1.571465553E0,-4.262499884E-2,6.462499965E-3,-5.637499969E-3
1.573973014E0,-5.719999969E-2,2.241249941E-2,-7.974999957E-3
1.576480097E0,-4.509999976E-2,2.749999985E-3,-4.399999976E-3
1.578985943E0,-1.333750039E-2,-3.506249934E-2,1.031249948E-2
1.581492941E0,1.608750038E-2,-3.877500072E-2,1.636249945E-2
1.584000634E0,2.942499891E-2,-1.553750038E-2,1.154999994E-2
1.586507482E0,2.942499891E-2,1.869999990E-2,5.499999970E-4
1.589013559E0,2.584999986E-2,4.069999978E-2,-1.168750040E-2
1.591520326E0,2.584999986E-2,3.093750030E-2,-1.044999994E-2
1.594028018E0,2.213750035E-2,-1.182499994E-2,1.787499990E-3
1.596534789E0,7.424999960E-3,-3.506249934E-2,1.278750040E-2
1.599040943E0,-2.062499896E-2,-2.406249940E-2,1.031249948E-2
1.601547763E0,-4.262499884E-2,6.462499965E-3,-1.924999990E-3
1.604055456E0,-4.619999975E-2,2.846249938E-2,-1.416249946E-2
1.606562227E0,-2.433750033E-2,2.474999987E-2,-1.897500083E-2
1.609068276E0,6.324999966E-3,-9.349999949E-3,-9.212499484E-3
1.611575120E0,2.584999986E-2,-3.258749843E-2,4.124999978E-3
1.614082778E0,2.337500080E-2,-2.282499894E-2,1.154999994E-2
1.616589550E0,8.662499487E-3,-2.062499989E-3,1.154999994E-2
1.619095698E0,-1.099999994E-3,2.474999987E-2,3.024999984E-3
1.621602336E0,3.849999979E-3,2.846249938E-2,-6.874999963E-4
1.624108933E0,1.842499897E-2,4.124999978E-4,1.787499990E-3
1.626617158E0,2.708750032E-2,-2.653750032E-2,6.599999964E-3
1.629123006E0,1.484999992E-2,-2.034999989E-2,1.787499990E-3
1.631629850E0,-5.912499968E-3,2.749999985E-3,-7.974999957E-3
1.634137543E0,-2.791249938E-2,3.093750030E-2,-2.021249942E-2
1.636644545E0,-3.038750030E-2,3.464999795E-2,-2.516249940E-2
1.639150468E0,-1.938750036E-2,-8.249999955E-4,-9.212499484E-3
1.641657466E0,-3.437499981E-3,-4.482499883E-2,1.402499992E-2
1.644164942E0,3.849999979E-3,-4.606249928E-2,2.488750033E-2
1.646671944E0,-1.099999994E-3,-1.801249944E-2,2.007500082E-2
1.649177867E0,2.612499986E-3,1.498750038E-2,9.074999951E-3
1.651684832E0,1.608750038E-2,3.698749840E-2,-4.399999976E-3
1.654192525E0,3.313750029E-2,2.241249941E-2,-7.974999957E-3
1.656699296E0,4.537500069E-2,-7.012499962E-3,-4.399999976E-3
1.659205237E0,3.313750029E-2,-1.801249944E-2,-1.924999990E-3
1.661712235E0,1.374999993E-4,-1.058750041E-2,-6.874999963E-4
1.664219922E0,-3.643750027E-2,6.462499965E-3,-6.874999963E-3
1.666726694E0,-5.238749832E-2,1.993750036E-2,-1.168750040E-2
1.669232847E0,-4.509999976E-2,8.937500417E-3,-7.974999957E-3
1.671739625E0,-2.062499896E-2,-2.777500078E-2,4.124999978E-3
1.674247317E0,5.087499972E-3,-3.753750026E-2,1.512499992E-2
1.676754169E0,1.842499897E-2,-2.406249940E-2,1.154999994E-2
1.679260246E0,2.089999989E-2,1.017499994E-2,1.787499990E-3
1.681767013E0,2.832499892E-2,4.069999978E-2,-1.044999994E-2
1.684274706E0,3.437500075E-2,3.698749840E-2,-1.416249946E-2
1.686781554E0,3.437500075E-2,-2.062499989E-3,-1.924999990E-3
1.689287631E0,1.608750038E-2,-2.901249938E-2,5.362499971E-3
1.691794475E0,-1.209999993E-2,-2.406249940E-2,9.074999951E-3
1.694302090E0,-4.015000165E-2,4.124999978E-4,-6.874999963E-4
1.696808938E0,-4.509999976E-2,2.474999987E-2,-1.168750040E-2
1.699315092E0,-3.038750030E-2,2.598750032E-2,-1.663750038E-2
1.701821855E0,1.374999993E-3,-7.012499962E-3,-9.212499484E-3
1.704329548E0,2.337500080E-2,-3.629999980E-2,6.599999964E-3
1.706836333E0,2.337500080E-2,-2.653750032E-2,1.278750040E-2
1.709342487E0,9.899999946E-3,-7.012499962E-3,1.402499992E-2
1.711849254E0,-1.099999994E-3,1.746249944E-2,7.837500423E-3
1.714356957E0,2.612499986E-3,2.969999984E-2,-1.924999990E-3
1.716863729E0,1.361249946E-2,1.017499994E-2,5.499999970E-4
1.719369883E0,2.461249940E-2,-2.034999989E-2,4.124999978E-3
1.721876654E0,2.089999989E-2,-2.406249940E-2,6.599999964E-3
1.724384346E0,-1.099999994E-3,-2.062499989E-3,-4.399999976E-3
1.726891348E0,-2.433750033E-2,1.869999990E-2,-1.539999992E-2
1.729397271E0,-3.162499890E-2,3.093750030E-2,-2.392499894E-2
1.731904038E0,-2.309999987E-2,5.224999972E-3,-1.292499993E-2
1.734411961E0,-7.287499961E-3,-3.135000169E-2,9.074999951E-3
1.736918733E0,1.374999993E-4,-4.358749837E-2,1.883750036E-2
1.739424887E0,-1.099999994E-3,-2.158750035E-2,1.883750036E-2
1.741931654E0,-2.337499987E-3,1.141249947E-2,6.599999964E-3
1.744439346E0,1.113750041E-2,3.575000167E-2,-5.637499969E-3
1.746946218E0,3.671250120E-2,2.846249938E-2,-1.168750040E-2
1.749452295E0,4.771250114E-2,-2.062499989E-3,-6.737499963E-3
1.751959072E0,3.671250120E-2,-1.677500084E-2,-6.874999963E-4
1.754466765E0,1.374999993E-3,-9.349999949E-3,-3.162499983E-3
1.756973613E0,-3.657500073E-2,5.224999972E-3,-1.924999990E-3
1.759479714E0,-5.486249924E-2,1.869999990E-2,-1.044999994E-2
1.761986481E0,-4.757500067E-2,1.746249944E-2,-1.044999994E-2
1.764494183E0,-1.828750037E-2,-2.282499894E-2,1.787499990E-3
1.767000955E0,7.424999960E-3,-4.111250117E-2,1.278750040E-2
1.769507108E0,1.966249943E-2,-2.406249940E-2,1.402499992E-2
1.772013953E0,2.213750035E-2,5.224999972E-3,7.837500423E-3
1.774521645E0,2.447500080E-2,3.217500076E-2,-3.162499983E-3
1.777028416E0,2.571249940E-2,3.464999795E-2,-9.212499484E-3
1.779534493E0,2.694999985E-2,2.887499984E-3,-1.924999990E-3
1.782041337E0,1.718750037E-2,-3.135000169E-2,1.031249948E-2
1.784549030E0,-6.049999967E-3,-2.529999986E-2,9.074999951E-3
1.787055801E0,-3.162499890E-2,-3.299999982E-3,1.787499990E-3
1.789561955E0,-4.386249930E-2,2.364999987E-2,-1.168750040E-2
1.792068722E0,-3.409999982E-2,3.217500076E-2,-2.144999988E-2
1.794576409E0,-6.049999967E-3,1.649999991E-3,-1.539999992E-2
1.797083411E0,1.718750037E-2,-2.887500077E-2,-6.874999963E-4
1.799589334E0,2.694999985E-2,-3.011249937E-2,9.074999951E-3
1.802096087E0,1.347499993E-2,-1.182499994E-2,1.278750040E-2
1.804603779E0,-1.099999994E-3,1.141249947E-2,1.031249948E-2
1.807110820E0,-1.099999994E-3,3.217500076E-2,1.787499990E-3
1.809616743E0,1.237499993E-2,1.388750039E-2,-6.874999963E-4
1.812123741E0,2.571249940E-2,-1.787500083E-2,1.787499990E-3
1.814631203E0,2.447500080E-2,-2.158750035E-2,5.499999970E-4
1.817138205E0,4.949999973E-3,-3.299999982E-3,-6.737499963E-3
1.819644128E0,-1.828750037E-2,2.364999987E-2,-1.773750037E-2
1.822151126E0,-2.914999984E-2,3.946249932E-2,-2.392499894E-2
1.824658818E0,-2.309999987E-2,1.622499898E-2,-1.773750037E-2
1.827165589E0,-1.086249948E-2,-3.506249934E-2,4.262499977E-3
1.829671536E0,-1.099999994E-3,-5.458749831E-2,2.131249942E-2
1.832178534E0,-2.337499987E-3,-3.011249937E-2,2.502499893E-2
1.834686227E0,-2.337499987E-3,3.987499978E-3,1.883750036E-2
1.837193011E0,7.424999960E-3,3.217500076E-2,3.024999984E-3
1.839699165E0,2.818750031E-2,3.575000167E-2,-1.044999994E-2
1.842205932E0,4.413750023E-2,2.887499984E-3,-9.212499484E-3
1.844713624E0,4.166249931E-2,-1.911249943E-2,-3.162499983E-3
1.847220472E0,1.842499897E-2,-1.553750038E-2,-6.874999963E-4
1.849726564E0,-2.309999987E-2,4.124999978E-4,-3.162499983E-3
1.852233332E0,-5.486249924E-2,1.869999990E-2,-9.212499484E-3
1.854741048E0,-5.857500061E-2,2.241249941E-2,-1.044999994E-2
1.857247896E0,-3.409999982E-2,-8.112499490E-3,-1.924999990E-3
1.859753973E0,-2.337499987E-3,-4.111250117E-2,9.074999951E-3
1.862260817E0,1.966249943E-2,-3.135000169E-2,1.278750040E-2
1.864768509E0,2.571249940E-2,-3.299999982E-3,7.837500423E-3
1.867275281E0,2.571249940E-2,3.217500076E-2,-4.399999976E-3
1.869781358E0,2.942499891E-2,4.564999789E-2,-1.292499993E-2
1.872288202E0,3.437500075E-2,1.746249944E-2,-6.737499963E-3
1.874795894E0,2.447500080E-2,-2.653750032E-2,4.262499977E-3
1.877302896E0,-3.574999981E-3,-3.506249934E-2,1.154999994E-2
1.879808814E0,-3.286249936E-2,-1.306249946E-2,5.362499971E-3
1.882315812E0,-4.633750021E-2,1.746249944E-2,-4.399999976E-3
1.884823269E0,-3.657500073E-2,3.698749840E-2,-1.897500083E-2
1.887330271E0,-1.086249948E-2,1.622499898E-2,-1.649999991E-2
1.889836204E0,1.347499993E-2,-2.529999986E-2,-4.399999976E-3
1.892343202E0,2.213750035E-2,-3.863750026E-2,6.599999964E-3
1.894850663E0,1.594999991E-2,-2.034999989E-2,1.636249945E-2
1.897357655E0,3.712499980E-3,3.987499978E-3,1.526249945E-2
1.899863578E0,3.712499980E-3,3.093750030E-2,7.837500423E-3
1.902370576E0,7.424999960E-3,2.364999987E-2,1.787499990E-3
1.904878038E0,1.594999991E-2,-9.349999949E-3,5.362499971E-3
1.907385040E0,1.966249943E-2,-3.135000169E-2,7.837500423E-3
1.909891194E0,9.899999946E-3,-2.034999989E-2,-6.874999963E-4
1.912397961E0,-9.624999948E-3,1.017499994E-2,-1.292499993E-2
1.914905653E0,-2.804999985E-2,3.822499886E-2,-2.516249940E-2
1.917412502E0,-2.681249939E-2,3.341250122E-2,-2.639999986E-2
1.919918578E0,-1.457499992E-2,-1.058750041E-2,-6.737499963E-3
1.922425365E0,-2.337499987E-3,-4.482499883E-2,1.402499992E-2
1.924933057E0,1.374999993E-3,-4.358749837E-2,2.378750034E-2
1.927439905E0,-6.049999967E-3,-1.182499994E-2,1.883750036E-2
1.929945982E0,2.612499986E-3,2.598750032E-2,6.599999964E-3
1.932452850E0,2.337500080E-2,4.675000161E-2,-5.637499969E-3
1.934960466E0,4.647500068E-2,1.869999990E-2,-9.212499484E-3
1.937467314E0,4.647500068E-2,-1.553750038E-2,-4.399999976E-3
1.939973391E0,2.337500080E-2,-1.787500083E-2,-4.399999976E-3
1.942480235E0,-1.581249945E-2,-6.874999963E-3,-3.162499983E-3
1.944987927E0,-4.633750021E-2,1.388750039E-2,-7.974999957E-3
1.947494698E0,-5.486249924E-2,2.846249938E-2,-1.168750040E-2
1.950000852E0,-3.904999793E-2,5.224999972E-3,-5.637499969E-3
1.952507620E0,-1.086249948E-2,-3.753750026E-2,1.031249948E-2
1.955015326E0,1.347499993E-2,-4.111250117E-2,1.759999990E-2
1.957522097E0,2.337500080E-2,-1.553750038E-2,1.526249945E-2
1.960028251E0,2.337500080E-2,1.388750039E-2,6.599999964E-3
1.962535038E0,2.447500080E-2,4.069999978E-2,-7.974999957E-3
1.965042730E0,2.571249940E-2,3.093750030E-2,-7.974999957E-3
1.967549746E0,2.447500080E-2,-1.182499994E-2,5.499999970E-4
1.970055670E0,1.237499993E-2,-3.629999980E-2,1.154999994E-2
1.972562418E0,-1.457499992E-2,-2.034999989E-2,1.031249948E-2
1.975070110E0,-4.138749838E-2,3.987499978E-3,-3.162499983E-3
1.977577102E0,-4.509999976E-2,2.722499892E-2,-1.539999992E-2
1.980083025E0,-2.433750033E-2,2.364999987E-2,-2.021249942E-2
1.982590023E0,4.949999973E-3,-1.058750041E-2,-1.044999994E-2
1.985097716E0,2.089999989E-2,-3.011249937E-2,3.024999984E-3
1.987604564E0,1.966249943E-2,-2.282499894E-2,1.031249948E-2
1.990110410E0,6.187499966E-3,-4.537499975E-3,1.402499992E-2
1.992617408E0,1.374999993E-3,1.993750036E-2,6.599999964E-3
1.995125100E0,8.662499487E-3,3.093750030E-2,-6.874999963E-4
1.997631871E0,2.213750035E-2,2.887499984E-3,1.787499990E-3
2.000138025E0,2.571249940E-2,-2.034999989E-2,3.024999984E-3
2.002644783E0,1.594999991E-2,-1.677500084E-2,1.787499990E-3
2.005152476E0,-6.049999967E-3,6.462499965E-3,-9.212499484E-3
2.007659333E0,-2.557500079E-2,2.598750032E-2,-1.897500083E-2
2.010165410E0,-3.038750030E-2,3.464999795E-2,-2.392499894E-2
2.012672182E0,-2.062499896E-2,-2.062499989E-3,-7.974999957E-3
2.015179951E0,-8.387500420E-3,-4.482499883E-2,1.402499992E-2
2.017686689E0,-1.099999994E-3,-4.358749837E-2,2.254999988E-2
2.020192766E0,-3.574999981E-3,-1.677500084E-2,2.378750034E-2
2.022699610E0,1.374999993E-3,1.622499898E-2,1.031249948E-2
2.025207302E0,1.718750037E-2,3.217500076E-2,-6.874999963E-4
2.027714073E0,3.671250120E-2,2.241249941E-2,-5.637499969E-3
2.030220227E0,4.523750022E-2,-8.112499490E-3,-3.162499983E-3
2.032726994E0,3.189999983E-2,-1.787500083E-2,5.499999970E-4
2.035234687E0,1.374999993E-4,-6.874999963E-3,-4.399999976E-3
2.037741458E0,-3.409999982E-2,1.017499994E-2,-5.637499969E-3
2.040247612E0,-5.238749832E-2,2.241249941E-2,-1.416249946E-2
2.042754379E0,-4.509999976E-2,1.264999993E-2,-9.212499484E-3
2.045262043E0,-2.062499896E-2,-2.282499894E-2,3.024999984E-3
2.047769045E0,6.187499966E-3,-3.629999980E-2,1.031249948E-2
2.050274988E0,2.213750035E-2,-2.282499894E-2,1.154999994E-2
2.052781986E0,2.089999989E-2,3.987499978E-3,3.024999984E-3
2.055289448E0,2.089999989E-2,3.575000167E-2,-4.399999976E-3
2.057796421E0,2.942499891E-2,3.575000167E-2,-7.974999957E-3
2.060302344E0,3.313750029E-2,-8.249999955E-4,-6.874999963E-4
2.062809342E0,1.966249943E-2,-2.887500077E-2,7.837500423E-3
2.065317034E0,-7.287499961E-3,-2.282499894E-2,6.599999964E-3
2.067823806E0,-3.781250119E-2,1.649999991E-3,-6.874999963E-4
2.070329959E0,-4.509999976E-2,2.969999984E-2,-1.416249946E-2
2.072836727E0,-2.914999984E-2,3.464999795E-2,-2.021249942E-2
2.075344419E0,-2.337499987E-3,-3.299999982E-3,-1.292499993E-2
2.077851190E0,2.213750035E-2,-3.629999980E-2,1.787499990E-3
2.080357344E0,1.842499897E-2,-3.382499889E-2,1.402499992E-2
2.082864111E0,7.424999960E-3,-1.306249946E-2,1.759999990E-2
2.085371804E0,-4.812499974E-3,1.017499994E-2,1.526249945E-2
2.087878652E0,-2.337499987E-3,2.846249938E-2,4.262499977E-3
2.090384719E0,1.113750041E-2,1.498750038E-2,4.262499977E-3
2.092891563E0,2.571249940E-2,-1.911249943E-2,5.362499971E-3
2.095399164E0,2.694999985E-2,-2.282499894E-2,1.787499990E-3
2.097906012E0,8.662499487E-3,-2.062499989E-3,-6.737499963E-3
2.100412089E0,-1.581249945E-2,2.241249941E-2,-1.897500083E-2
2.102918929E0,-3.038750030E-2,3.698749840E-2,-2.639999986E-2
2.105426621E0,-2.681249939E-2,1.622499898E-2,-1.897500083E-2
2.107933411E0,-1.704999991E-2,-3.011249937E-2,4.262499977E-3
2.110439488E0,-4.812499974E-3,-4.853750020E-2,2.131249942E-2
2.112946317E0,-2.337499987E-3,-3.258749843E-2,2.254999988E-2
2.115454009E0,-1.099999994E-3,2.887499984E-3,1.759999990E-2
2.117960781E0,1.237499993E-2,3.698749840E-2,-6.874999963E-4
2.120466935E0,3.547500074E-2,3.946249932E-2,-9.212499484E-3
2.122973702E0,5.018749833E-2,5.224999972E-3,-6.737499963E-3
2.125481394E0,3.918749839E-2,-2.034999989E-2,-4.399999976E-3
2.127988396E0,9.899999946E-3,-1.429999992E-2,-1.924999990E-3
2.130494319E0,-2.914999984E-2,2.887499984E-3,-4.399999976E-3
2.133001086E0,-5.004999787E-2,2.241249941E-2,-9.212499484E-3
2.135508779E0,-4.881250113E-2,2.488750033E-2,-1.292499993E-2
2.138015767E0,-2.681249939E-2,-1.182499994E-2,-6.874999963E-4
2.140521690E0,1.374999993E-3,-4.606249928E-2,1.278750040E-2
2.143028688E0,1.718750037E-2,-3.506249934E-2,1.759999990E-2
2.145536139E0,2.213750035E-2,-5.774999969E-3,1.278750040E-2
2.148043141E0,2.447500080E-2,2.722499892E-2,-6.874999963E-4
2.150549083E0,2.447500080E-2,4.193750024E-2,-7.974999957E-3
2.153056081E0,2.571249940E-2,1.388750039E-2,-3.162499983E-3
2.155563774E0,2.089999989E-2,-2.653750032E-2,1.031249948E-2
2.158070622E0,2.612499986E-3,-3.629999980E-2,1.278750040E-2
2.160576709E0,-2.186249942E-2,-1.429999992E-2,3.024999984E-3
2.163083476E0,-4.138749838E-2,1.622499898E-2,-9.212499484E-3
2.165591168E0,-3.904999793E-2,3.822499886E-2,-2.268750034E-2
2.168098017E0,-1.704999991E-2,1.622499898E-2,-1.897500083E-2
2.170604094E0,8.662499487E-3,-1.911249943E-2,-5.637499969E-3
2.173110938E0,2.213750035E-2,-3.382499889E-2,6.599999964E-3
2.175618553E0,1.471249945E-2,-2.406249940E-2,1.402499992E-2
2.178125401E0,1.374999993E-4,4.124999978E-4,1.278750040E-2
2.180631478E0,1.374999993E-3,2.722499892E-2,5.362499971E-3
2.183138250E0,1.113750041E-2,2.598750032E-2,1.787499990E-3
2.185646020E0,2.337500080E-2,-9.349999949E-3,5.362499971E-3
2.188152791E0,2.447500080E-2,-2.282499894E-2,4.262499977E-3
2.190658930E0,9.899999946E-3,-1.306249946E-2,-4.399999976E-3
2.193165697E0,-1.333750039E-2,1.264999993E-2,-1.292499993E-2
2.195673389E0,-2.804999985E-2,3.698749840E-2,-2.639999986E-2
2.198180176E0,-2.557500079E-2,3.341250122E-2,-2.392499894E-2
2.200686329E0,-1.333750039E-2,-1.429999992E-2,-5.637499969E-3
2.203193130E0,-4.812499974E-3,-4.963750020E-2,1.636249945E-2
2.205700822E0,-3.574999981E-3,-4.111250117E-2,2.612499893E-2
2.208207824E0,-8.387500420E-3,-1.429999992E-2,2.502499893E-2
2.210713722E0,4.949999973E-3,1.993750036E-2,1.154999994E-2
2.213220720E0,2.571249940E-2,3.698749840E-2,-5.637499969E-3
2.215728182E0,4.289999977E-2,1.746249944E-2,-6.737499963E-3
2.218235184E0,4.523750022E-2,-1.306249946E-2,-3.162499983E-3
2.220741107E0,2.571249940E-2,-1.787500083E-2,-3.162499983E-3
2.223248105E0,-8.387500420E-3,-6.874999963E-3,-5.637499969E-3
2.225755797E0,-4.262499884E-2,1.388750039E-2,-1.044999994E-2
2.228262568E0,-5.609999970E-2,2.846249938E-2,-1.539999992E-2
2.230768491E0,-4.138749838E-2,1.017499994E-2,-1.168750040E-2
2.233275489E0,-1.333750039E-2,-3.011249937E-2,4.262499977E-3
2.235783182E0,9.899999946E-3,-3.987500072E-2,1.526249945E-2
2.238289953E0,1.718750037E-2,-2.034999989E-2,1.636249945E-2
2.240796112E0,1.718750037E-2,1.017499994E-2,7.837500423E-3
2.243302879E0,2.213750035E-2,4.193750024E-2,-6.737499963E-3
2.245810571E0,3.189999983E-2,3.093750030E-2,-9.212499484E-3
2.248317443E0,3.189999983E-2,-8.112499490E-3,-1.924999990E-3
2.250823520E0,1.471249945E-2,-3.011249937E-2,5.362499971E-3
2.253330303E0,-1.457499992E-2,-1.677500084E-2,4.262499977E-3
2.255837995E0,-3.657500073E-2,1.017499994E-2,-5.499999970E-3
2.258344843E0,-3.904999793E-2,3.093750030E-2,-1.773750037E-2
2.260850920E0,-2.186249942E-2,2.969999984E-2,-2.144999988E-2
2.263357764E0,1.374999993E-3,-1.429999992E-2,-7.974999957E-3
2.265865380E0,1.471249945E-2,-4.111250117E-2,6.599999964E-3
2.268372228E0,1.223750040E-2,-3.011249937E-2,1.526249945E-2
2.270878305E0,4.949999973E-3,-9.349999949E-3,2.007500082E-2
2.273385149E0,-1.099999994E-3,1.498750038E-2,1.154999994E-2
2.275892841E0,3.712499980E-3,2.846249938E-2,3.024999984E-3
2.278399612E0,1.471249945E-2,6.462499965E-3,3.024999984E-3
2.280905689E0,2.694999985E-2,-2.034999989E-2,4.262499977E-3
2.283412518E0,2.323750034E-2,-1.911249943E-2,-6.874999963E-4
2.285920211E0,1.374999993E-4,5.224999972E-3,-1.044999994E-2
2.288426973E0,-2.186249942E-2,2.722499892E-2,-2.144999988E-2
2.290933127E0,-3.038750030E-2,3.588749841E-2,-2.639999986E-2
2.293439894E0,-2.186249942E-2,6.462499965E-3,-1.292499993E-2
2.295947817E0,-8.524999954E-3,-3.629999980E-2,7.837500423E-3
2.298454588E0,1.374999993E-4,-4.606249928E-2,2.007500082E-2
2.300960511E0,-4.812499974E-3,-2.406249940E-2,2.254999988E-2
2.303467509E0,-2.337499987E-3,1.017499994E-2,1.278750040E-2
2.305974971E0,1.471249945E-2,3.698749840E-2,-6.874999963E-4
2.308481973E0,3.671250120E-2,2.722499892E-2,-9.212499484E-3
2.310987896E0,4.771250114E-2,-6.874999963E-3,-6.737499963E-3
2.313494884E0,3.313750029E-2,-1.911249943E-2,-4.399999976E-3
2.316002346E0,1.374999993E-4,-8.112499490E-3,-4.399999976E-3
2.318509415E0,-3.409999982E-2,8.937500417E-3,-6.737499963E-3
2.321015261E0,-4.881250113E-2,2.598750032E-2,-1.292499993E-2
2.323522245E0,-4.262499884E-2,1.993750036E-2,-1.292499993E-2
2.326029937E0,-1.952499896E-2,-2.282499894E-2,5.499999970E-4
2.328536770E0,8.662499487E-3,-4.358749837E-2,1.278750040E-2
2.331042847E0,2.323750034E-2,-2.887500077E-2,1.636249945E-2
2.333549691E0,2.213750035E-2,-8.249999955E-4,1.154999994E-2
2.336057307E0,1.966249943E-2,2.969999984E-2,3.024999984E-3
2.338564155E0,1.966249943E-2,3.698749840E-2,-5.499999970E-3
2.341070232E0,2.323750034E-2,1.649999991E-3,1.787499990E-3
2.343577076E0,1.966249943E-2,-3.258749843E-2,7.837500423E-3
2.346084768E0,-2.337499987E-3,-2.763750032E-2,6.599999964E-3
2.348591539E0,-2.928750031E-2,4.124999978E-4,-6.874999963E-4
2.351097616E0,-4.262499884E-2,2.598750032E-2,-1.649999991E-2
2.353604437E0,-2.804999985E-2,3.698749840E-2,-2.392499894E-2
2.356112129E0,-6.049999967E-3,7.699999958E-3,-2.021249942E-2
2.358618896E0,1.223750040E-2,-2.887500077E-2,-1.924999990E-3
2.361125050E0,1.594999991E-2,-3.629999980E-2,1.278750040E-2
2.363631816E0,7.424999960E-3,-1.911249943E-2,2.007500082E-2
2.366139509E0,-2.337499987E-3,6.462499965E-3,1.759999990E-2
2.368646511E0,2.474999987E-3,3.217500076E-2,6.599999964E-3
2.371152420E0,1.471249945E-2,1.869999990E-2,5.499999970E-4
2.373659187E0,2.571249940E-2,-1.306249946E-2,3.024999984E-3
2.376166884E0,2.694999985E-2,-2.282499894E-2,5.499999970E-4
2.378673886E0,8.662499487E-3,-3.299999982E-3,-1.168750040E-2
2.381179809E0,-1.581249945E-2,2.364999987E-2,-2.021249942E-2
2.383686807E0,-2.928750031E-2,4.069999978E-2,-2.392499894E-2
2.386194500E0,-2.681249939E-2,2.364999987E-2,-1.897500083E-2
2.388701271E0,-1.581249945E-2,-3.135000169E-2,5.362499971E-3
2.391207194E0,-7.287499961E-3,-5.829999968E-2,2.502499893E-2
2.393714192E0,-4.812499974E-3,-3.629999980E-2,2.736249939E-2
2.396221884E0,-3.574999981E-3,-2.062499989E-3,2.007500082E-2
2.398728655E0,9.899999946E-3,2.969999984E-2,4.262499977E-3
2.401234593E0,2.818750031E-2,3.464999795E-2,-3.162499983E-3
2.403741591E0,4.399999976E-2,1.017499994E-2,-6.737499963E-3
2.406249264E0,4.042499885E-2,-1.677500084E-2,-1.924999990E-3
2.408756035E0,1.718750037E-2,-1.182499994E-2,-5.499999970E-3
2.411262156E0,-1.828750037E-2,4.124999978E-4,-9.212499484E-3
2.413768923E0,-4.386249930E-2,1.993750036E-2,-1.044999994E-2
2.416276615E0,-5.128749833E-2,2.364999987E-2,-1.416249946E-2
2.418783450E0,-3.657500073E-2,-2.062499989E-3,-1.924999990E-3
2.421289527E0,-1.209999993E-2,-3.629999980E-2,1.031249948E-2
2.423796294E0,1.113750041E-2,-3.863750026E-2,1.636249945E-2
2.426303986E0,1.842499897E-2,-1.429999992E-2,1.278750040E-2
2.428810834E0,1.966249943E-2,1.993750036E-2,5.499999970E-4
2.431316988E0,2.694999985E-2,4.564999789E-2,-9.212499484E-3
2.433823755E0,3.313750029E-2,2.364999987E-2,-7.974999957E-3
2.436331448E0,3.066249937E-2,-1.677500084E-2,3.024999984E-3
2.438838219E0,1.113750041E-2,-3.135000169E-2,6.599999964E-3
2.441344373E0,-2.062499896E-2,-1.306249946E-2,3.024999984E-3
2.443851158E0,-3.904999793E-2,1.498750038E-2,-7.974999957E-3
2.446358850E0,-3.657500073E-2,3.698749840E-2,-2.144999988E-2
2.448865622E0,-1.457499992E-2,2.488750033E-2,-1.897500083E-2
2.451371775E0,7.424999960E-3,-1.911249943E-2,-4.399999976E-3
2.453878543E0,1.966249943E-2,-3.863750026E-2,9.074999951E-3
2.456386235E0,1.113750041E-2,-2.887500077E-2,1.759999990E-2
2.458893020E0,-3.574999981E-3,-8.112499490E-3,2.007500082E-2
2.461399174E0,-4.812499974E-3,1.993750036E-2,1.154999994E-2
2.463906172E0,4.949999973E-3,2.969999984E-2,5.362499971E-3
2.466413634E0,2.089999989E-2,2.887499984E-3,5.362499971E-3
2.468920636E0,2.942499891E-2,-2.034999989E-2,4.262499977E-3
2.471426569E0,2.089999989E-2,-1.429999992E-2,-3.162499983E-3
2.473933567E0,-2.337499987E-3,6.462499965E-3,-1.539999992E-2
2.476441273E0,-2.309999987E-2,3.217500076E-2,-2.749999985E-2
2.478948044E0,-3.038750030E-2,3.822499886E-2,-2.749999985E-2
2.481453967E0,-2.186249942E-2,1.649999991E-3,-1.044999994E-2
2.483960946E0,-8.524999954E-3,-3.987500072E-2,1.402499992E-2
2.486468639E0,-3.574999981E-3,-4.482499883E-2,2.626249939E-2
2.488975487E0,-7.287499961E-3,-2.653750032E-2,2.502499893E-2
2.491481564E0,-4.812499974E-3,8.937500417E-3,1.526249945E-2
2.493988331E0,1.718750037E-2,3.698749840E-2,-1.924999990E-3
2.496496023E0,4.289999977E-2,2.846249938E-2,-7.974999957E-3
2.499002871E0,5.142499879E-2,-5.774999969E-3,-9.212499484E-3
2.501508948E0,3.189999983E-2,-1.429999992E-2,-4.399999976E-3
2.504015793E0,-4.812499974E-3,-3.299999982E-3,-6.737499963E-3
2.506523408E0,-3.781250119E-2,8.937500417E-3,-9.212499484E-3
2.509030256E0,-4.881250113E-2,2.488750033E-2,-1.292499993E-2
2.511536323E0,-3.904999793E-2,1.264999993E-2,-1.044999994E-2
2.514043167E0,-1.704999991E-2,-2.887500077E-2,7.837500423E-3
2.516550869E0,3.712499980E-3,-4.235000163E-2,1.636249945E-2
2.519057641E0,1.471249945E-2,-2.406249940E-2,1.883750036E-2
2.521563795E0,1.966249943E-2,4.124999978E-4,1.154999994E-2
2.524070548E0,2.323750034E-2,3.217500076E-2,5.499999970E-4
2.526578240E0,2.942499891E-2,3.464999795E-2,-6.737499963E-3
2.529085242E0,3.066249937E-2,2.887499984E-3,-6.874999963E-4
2.531591165E0,2.089999989E-2,-2.529999986E-2,5.362499971E-3
2.534097932E0,-6.049999967E-3,-1.911249943E-2,5.362499971E-3
2.536605625E0,-3.409999982E-2,1.649999991E-3,-3.162499983E-3
2.539112622E0,-4.262499884E-2,2.364999987E-2,-1.649999991E-2
2.541618545E0,-2.804999985E-2,3.093750030E-2,-2.639999986E-2
2.544125549E0,-4.812499974E-3,4.124999978E-4,-1.539999992E-2
2.546633010E0,1.223750040E-2,-3.011249937E-2,5.499999970E-4
2.549140012E0,1.471249945E-2,-3.258749843E-2,1.402499992E-2
2.551645935E0,7.424999960E-3,-1.677500084E-2,2.007500082E-2
2.554152934E0,-1.099999994E-3,8.937500417E-3,1.278750040E-2
2.556660626E0,4.949999973E-3,3.093750030E-2,3.024999984E-3
2.559167397E0,1.966249943E-2,1.388750039E-2,-1.924999990E-3
2.561673320E0,2.942499891E-2,-1.677500084E-2,1.787499990E-3
2.564180318E0,2.323750034E-2,-2.158750035E-2,-1.924999990E-3
2.566688010E0,1.374999993E-3,-2.062499989E-3,-6.737499963E-3
2.569194858E0,-2.062499896E-2,2.364999987E-2,-1.649999991E-2
2.571700935E0,-2.928750031E-2,3.946249932E-2,-2.516249940E-2
2.574207808E0,-2.433750033E-2,1.622499898E-2,-1.649999991E-2
2.576715423E0,-1.086249948E-2,-3.629999980E-2,4.262499977E-3
2.579222286E0,-1.099999994E-3,-5.211250111E-2,2.254999988E-2
2.581728363E0,1.374999993E-4,-3.135000169E-2,2.859999985E-2
2.584235130E0,-1.099999994E-3,4.124999978E-4,2.131249942E-2
2.586742837E0,9.899999946E-3,3.093750030E-2,4.262499977E-3
2.589249685E0,2.694999985E-2,3.217500076E-2,-6.737499963E-3
2.591755762E0,4.289999977E-2,4.124999978E-3,-5.499999970E-3
2.594262606E0,3.795000166E-2,-1.911249943E-2,-3.162499983E-3
2.596770221E0,1.471249945E-2,-1.058750041E-2,-5.499999970E-3
2.599277070E0,-2.309999987E-2,4.124999978E-3,-6.737499963E-3
2.601783223E0,-4.881250113E-2,2.364999987E-2,-1.416249946E-2
2.604289991E0,-4.881250113E-2,2.364999987E-2,-1.649999991E-2
2.606797683E0,-3.038750030E-2,-6.874999963E-3,-6.737499963E-3
2.609304685E0,-1.099999994E-3,-3.987500072E-2,1.031249948E-2
2.611810608E0,1.842499897E-2,-3.506249934E-2,1.759999990E-2
2.614317592E0,1.966249943E-2,-1.058750041E-2,1.526249945E-2
2.616825054E0,1.718750037E-2,2.241249941E-2,5.362499971E-3
2.619331825E0,2.323750034E-2,4.193750024E-2,-6.737499963E-3
2.621838320E0,3.066249937E-2,1.388750039E-2,-4.399999976E-3
2.624344915E0,2.694999985E-2,-2.406249940E-2,1.787499990E-3
2.626852673E0,7.424999960E-3,-2.763750032E-2,4.262499977E-3
2.629359444E0,-1.952499896E-2,-3.299999982E-3,-6.874999963E-4
2.631865367E0,-3.781250119E-2,2.364999987E-2,-1.168750040E-2
2.634372365E0,-3.162499890E-2,3.822499886E-2,-2.144999988E-2
2.636880058E0,-1.209999993E-2,1.746249944E-2,-1.773750037E-2
2.639386829E0,6.187499966E-3,-3.011249937E-2,-6.874999963E-4
2.641892983E0,1.347499993E-2,-4.358749837E-2,1.402499992E-2
2.644399750E0,7.424999960E-3,-2.887500077E-2,2.007500082E-2
2.646907442E0,-3.574999981E-3,-2.062499989E-3,2.007500082E-2
2.649414290E0,-1.099999994E-3,2.598750032E-2,9.074999951E-3
2.651920367E0,1.113750041E-2,2.846249938E-2,1.787499990E-3
2.654427135E0,2.447500080E-2,-2.062499989E-3,5.499999970E-4
2.656934827E0,3.066249937E-2,-2.529999986E-2,1.787499990E-3
2.659441675E0,1.966249943E-2,-1.306249946E-2,-5.499999970E-3
2.661947752E0,-8.524999954E-3,1.141249947E-2,-1.539999992E-2
2.664454596E0,-2.928750031E-2,3.464999795E-2,-2.392499894E-2
2.666962227E0,-3.286249936E-2,3.588749841E-2,-2.392499894E-2
2.669469075E0,-2.186249942E-2,-8.112499490E-3,-3.162499983E-3
2.671975147E0,-8.524999954E-3,-4.963750020E-2,1.759999990E-2
2.674481991E0,-4.812499974E-3,-4.853750020E-2,2.626249939E-2
2.676989683E0,-7.287499961E-3,-1.677500084E-2,2.378750034E-2
2.679496463E0,1.374999993E-3,2.364999987E-2,9.074999951E-3
2.682002540E0,2.213750035E-2,4.564999789E-2,-5.499999970E-3
2.684509384E0,4.523750022E-2,2.488750033E-2,-1.168750040E-2
2.687017077E0,4.895000160E-2,-9.349999949E-3,-6.737499963E-3
2.689523848E0,3.066249937E-2,-1.787500083E-2,-5.499999970E-3
2.692030002E0,-4.812499974E-3,-4.537499975E-3,-7.974999957E-3
2.694536769E0,-3.904999793E-2,1.388750039E-2,-7.974999957E-3
2.697044461E0,-5.362499878E-2,2.846249938E-2,-1.292499993E-2
2.699551463E0,-4.262499884E-2,7.699999958E-3,-4.399999976E-3
2.702057386E0,-1.704999991E-2,-3.258749843E-2,1.031249948E-2
2.704564403E0,8.662499487E-3,-4.482499883E-2,1.883750036E-2
2.707072096E0,1.842499897E-2,-2.529999986E-2,1.636249945E-2
2.709578867E0,2.089999989E-2,6.462499965E-3,6.599999964E-3
2.712085021E0,2.323750034E-2,3.946249932E-2,-4.399999976E-3
2.714591788E0,2.694999985E-2,3.464999795E-2,-7.974999957E-3
2.717099480E0,2.818750031E-2,-3.299999982E-3,1.787499990E-3
2.719606252E0,1.842499897E-2,-3.135000169E-2,6.599999964E-3
2.722112401E0,-9.624999948E-3,-2.282499894E-2,4.262499977E-3
2.724619168E0,-3.286249936E-2,2.887499984E-3,-6.737499963E-3
2.727126855E0,-4.028749838E-2,2.969999984E-2,-1.773750037E-2
2.729633626E0,-2.309999987E-2,3.464999795E-2,-2.144999988E-2
2.732139780E0,-2.337499987E-3,-4.537499975E-3,-1.168750040E-2
2.734646547E0,9.899999946E-3,-3.382499889E-2,7.837500423E-3
2.737154240E0,9.899999946E-3,-3.506249934E-2,1.512499992E-2
2.739661088E0,1.374999993E-3,-1.787500083E-2,1.759999990E-2
2.742167165E0,1.374999993E-4,1.264999993E-2,1.278750040E-2
2.744674009E0,1.113750041E-2,3.464999795E-2,-6.874999963E-4
2.747181701E0,2.213750035E-2,1.388750039E-2,-6.874999963E-4
2.749688473E0,3.189999983E-2,-1.553750038E-2,5.499999970E-4
2.752194554E0,2.337500080E-2,-1.787500083E-2,-3.162499983E-3
2.754701399E0,1.374999993E-4,4.124999978E-4,-1.292499993E-2
2.757209014E0,-2.309999987E-2,2.598750032E-2,-2.268750034E-2
2.759715848E0,-3.162499890E-2,3.946249932E-2,-2.763750032E-2
2.762222002E0,-2.557500079E-2,1.388750039E-2,-1.539999992E-2
2.764728773E0,-1.086249948E-2,-3.987500072E-2,9.074999951E-3
2.767236466E0,-1.099999994E-3,-5.211250111E-2,2.502499893E-2
2.769743266E0,-3.574999981E-3,-3.135000169E-2,2.859999985E-2
2.772249420E0,-4.812499974E-3,-3.299999982E-3,2.007500082E-2
2.774756187E0,9.899999946E-3,2.969999984E-2,3.024999984E-3
2.777263879E0,3.189999983E-2,3.217500076E-2,-5.637499969E-3
2.779770881E0,4.661250114E-2,6.462499965E-3,-6.737499963E-3
2.782276804E0,4.042499885E-2,-1.306249946E-2,-4.399999976E-3
2.784783802E0,1.237499993E-2,-8.112499490E-3,-6.737499963E-3
2.787291495E0,-2.557500079E-2,1.649999991E-3,-9.212499484E-3
2.789798266E0,-4.991250113E-2,1.993750036E-2,-1.416249946E-2
2.792304189E0,-4.867500067E-2,1.993750036E-2,-1.539999992E-2
2.794811163E0,-2.914999984E-2,-9.349999949E-3,-6.874999963E-4
2.797318855E0,-4.812499974E-3,-3.877500072E-2,1.278750040E-2
2.799825626E0,1.237499993E-2,-3.382499889E-2,2.131249942E-2
2.802331790E0,1.842499897E-2,-1.182499994E-2,1.278750040E-2
2.804838558E0,2.089999989E-2,2.241249941E-2,3.024999984E-3
2.807346250E0,2.694999985E-2,4.441250116E-2,-7.974999957E-3
2.809853098E0,3.561250120E-2,1.869999990E-2,-7.974999957E-3
2.812359175E0,3.189999983E-2,-1.553750038E-2,5.499999970E-4
2.814865942E0,7.424999960E-3,-2.158750035E-2,-6.874999963E-4
2.817373639E0,-2.681249939E-2,-3.299999982E-3,-4.399999976E-3
2.819880487E0,-4.262499884E-2,1.746249944E-2,-1.044999994E-2
2.822386545E0,-3.533750027E-2,3.341250122E-2,-1.663750038E-2
2.824893389E0,-1.333750039E-2,1.141249947E-2,-1.292499993E-2
2.827401004E0,7.424999960E-3,-2.887500077E-2,1.787499990E-3
2.829907852E0,1.361249946E-2,-4.111250117E-2,1.512499992E-2
2.832413929E0,5.087499972E-3,-2.529999986E-2,2.131249942E-2
2.834920773E0,1.374999993E-4,-8.249999955E-4,2.007500082E-2
2.837428466E0,1.374999993E-3,2.598750032E-2,7.837500423E-3
2.839935237E0,1.484999992E-2,2.969999984E-2,-6.874999963E-4
2.842441314E0,2.818750031E-2,-3.299999982E-3,5.499999970E-4
2.844948168E0,2.942499891E-2,-2.158750035E-2,-6.874999963E-4
2.847455860E0,1.113750041E-2,-1.182499994E-2,-6.737499963E-3
2.849962866E0,-1.333750039E-2,1.264999993E-2,-1.539999992E-2
2.852468789E0,-2.791249938E-2,3.698749840E-2,-2.268750034E-2
2.854975557E0,-2.914999984E-2,3.093750030E-2,-2.021249942E-2
2.857483490E0,-1.691249944E-2,-1.553750038E-2,-3.162499983E-3
2.859990261E0,-7.149999961E-3,-4.977500066E-2,1.759999990E-2
2.862496217E0,-5.912499968E-3,-4.235000163E-2,2.502499893E-2
2.865002984E0,-7.149999961E-3,-1.677500084E-2,2.378750034E-2
2.867510673E0,1.374999993E-3,2.474999987E-2,9.074999951E-3
2.870017675E0,2.461249940E-2,4.317500070E-2,-7.974999957E-3
2.872523598E0,4.537500069E-2,1.746249944E-2,-1.044999994E-2
2.875030596E0,4.771250114E-2,-1.429999992E-2,-9.212499484E-3
2.877538288E0,2.818750031E-2,-1.553750038E-2,-6.737499963E-3
2.880045059E0,-1.086249948E-2,-3.299999982E-3,-6.737499963E-3
2.882551213E0,-4.262499884E-2,1.622499898E-2,-9.212499484E-3
2.885057980E0,-4.991250113E-2,3.093750030E-2,-1.292499993E-2
2.887565673E0,-3.767500073E-2,5.224999972E-3,-6.737499963E-3
2.890072521E0,-1.086249948E-2,-3.753750026E-2,1.031249948E-2
2.892578598E0,9.899999946E-3,-4.482499883E-2,1.883750036E-2
2.895085442E0,1.966249943E-2,-2.158750035E-2,1.759999990E-2
2.897593061E0,1.842499897E-2,8.937500417E-3,1.031249948E-2
2.900099909E0,2.213750035E-2,3.946249932E-2,-6.874999963E-4
2.902605986E0,2.694999985E-2,3.093750030E-2,-5.637499969E-3
2.905112831E0,2.694999985E-2,-7.012499962E-3,-6.874999963E-4
2.907620446E0,1.842499897E-2,-2.887500077E-2,5.362499971E-3
2.910127294E0,-1.086249948E-2,-1.787500083E-2,1.787499990E-3
2.912633371E0,-3.409999982E-2,6.462499965E-3,-5.637499969E-3
2.915140215E0,-3.657500073E-2,3.217500076E-2,-1.897500083E-2
2.917647908E0,-2.309999987E-2,3.093750030E-2,-2.021249942E-2
2.920154679E0,-2.337499987E-3,-9.349999949E-3,-7.974999957E-3
2.922660833E0,1.237499993E-2,-3.753750026E-2,6.599999964E-3
2.925167600E0,1.237499993E-2,-3.629999980E-2,1.759999990E-2
2.927675292E0,3.849999979E-3,-1.306249946E-2,1.883750036E-2
2.930182294E0,1.374999993E-4,1.869999990E-2,1.278750040E-2
2.932688217E0,7.424999960E-3,3.575000167E-2,3.024999984E-3
2.935194970E0,2.337500080E-2,1.017499994E-2,-6.874999963E-4
2.937702663E0,3.189999983E-2,-1.911249943E-2,-1.924999990E-3
2.940209665E0,2.213750035E-2,-1.429999992E-2,-6.737499963E-3
2.942715559E0,1.374999993E-4,6.462499965E-3,-1.292499993E-2
2.945222557E0,-2.062499896E-2,3.093750030E-2,-2.268750034E-2
2.947730018E0,-3.038750030E-2,4.069999978E-2,-2.639999986E-2
2.950237020E0,-2.557500079E-2,5.224999972E-3,-9.212499484E-3
2.952742944E0,-1.457499992E-2,-4.977500066E-2,1.402499992E-2
2.955249923E0,-5.912499968E-3,-5.335000157E-2,2.859999985E-2
2.957757615E0,-5.912499968E-3,-3.011249937E-2,2.859999985E-2
2.960264386E0,1.374999993E-4,7.699999958E-3,1.759999990E-2
2.962770540E0,1.594999991E-2,3.698749840E-2,5.499999970E-4
2.965277307E0,3.684999794E-2,3.575000167E-2,-9.212499484E-3
2.967784999E0,4.895000160E-2,2.887499984E-3,-7.974999957E-3
2.970291771E0,4.042499885E-2,-1.787500083E-2,-7.974999957E-3
2.972797925E0,9.899999946E-3,-1.306249946E-2,-7.974999957E-3
2.975304692E0,-3.162499890E-2,2.887499984E-3,-9.212499484E-3
2.977812384E0,-5.238749832E-2,2.598750032E-2,-1.416249946E-2
2.980319251E0,-4.991250113E-2,1.993750036E-2,-1.044999994E-2
2.982825328E0,-3.038750030E-2,-1.787500083E-2,1.787499990E-3
2.985332182E0,-1.099999994E-3,-4.482499883E-2,1.512499992E-2
2.987839798E0,1.594999991E-2,-3.258749843E-2,1.512499992E-2
2.990346646E0,1.842499897E-2,-7.012499962E-3,1.031249948E-2
2.992852752E0,2.089999989E-2,3.341250122E-2,-1.924999990E-3
2.995359596E0,3.189999983E-2,4.798749834E-2,-1.292499993E-2
2.997867288E0,3.561250120E-2,1.388750039E-2,-6.737499963E-3
3.000374060E0,2.818750031E-2,-2.282499894E-2,1.787499990E-3
3.002880174E0,1.374999993E-4,-2.653750032E-2,5.362499971E-3
3.005387019E0,-3.038750030E-2,-3.299999982E-3,-4.399999976E-3
3.007894692E0,-4.138749838E-2,1.993750036E-2,-1.168750040E-2
3.010401463E0,-3.409999982E-2,3.822499886E-2,-1.773750037E-2
3.012907617E0,-1.209999993E-2,1.017499994E-2,-1.292499993E-2
3.015414615E0,9.899999946E-3,-3.258749843E-2,3.024999984E-3
3.017922307E0,1.361249946E-2,-3.987500072E-2,1.402499992E-2
3.020429079E0,5.087499972E-3,-2.653750032E-2,2.007500082E-2
3.022935002E0,-2.337499987E-3,1.649999991E-3,1.636249945E-2
3.025441769E0,1.374999993E-3,3.093750030E-2,4.124999978E-3
3.027949692E0,1.594999991E-2,2.722499892E-2,5.499999970E-4
3.030456463E0,2.818750031E-2,-7.012499962E-3,1.787499990E-3
3.032962617E0,2.942499891E-2,-2.034999989E-2,1.787499990E-3
3.035469384E0,1.237499993E-2,-1.058750041E-2,-5.637499969E-3
3.037977048E0,-1.457499992E-2,1.498750038E-2,-1.663750038E-2
3.040483819E0,-2.914999984E-2,3.698749840E-2,-2.516249940E-2
3.042989987E0,-2.681249939E-2,3.093750030E-2,-2.144999988E-2
3.045496754E0,-1.814999990E-2,-1.911249943E-2,1.787499990E-3
3.048004446E0,-8.387500420E-3,-5.087500066E-2,1.883750036E-2
3.050511275E0,-8.387500420E-3,-4.358749837E-2,2.612499893E-2
3.053017352E0,-8.387500420E-3,-1.677500084E-2,2.007500082E-2
3.055524192E0,7.424999960E-3,2.598750032E-2,5.362499971E-3
3.058031807E0,3.066249937E-2,4.193750024E-2,-7.974999957E-3
3.060538655E0,5.018749833E-2,1.869999990E-2,-1.292499993E-2
3.063044732E0,4.537500069E-2,-1.182499994E-2,-7.974999957E-3
3.065551576E0,2.089999989E-2,-1.306249946E-2,-7.974999957E-3
3.068059192E0,-1.457499992E-2,-2.062499989E-3,-7.974999957E-3
3.070566040E0,-4.138749838E-2,1.622499898E-2,-1.044999994E-2
3.073072117E0,-4.991250113E-2,2.598750032E-2,-1.168750040E-2
3.075578961E0,-3.891250119E-2,4.124999978E-4,-1.924999990E-3
3.078086653E0,-1.209999993E-2,-3.987500072E-2,1.512499992E-2
3.080593405E0,1.237499993E-2,-4.482499883E-2,2.131249942E-2
3.083099559E0,1.842499897E-2,-2.034999989E-2,1.636249945E-2
3.085606321E0,1.718750037E-2,1.017499994E-2,7.837500423E-3
3.088114014E0,2.213750035E-2,4.069999978E-2,-7.974999957E-3
3.090621011E0,3.189999983E-2,2.846249938E-2,-9.212499484E-3
3.093126934E0,3.313750029E-2,-7.012499962E-3,1.787499990E-3
3.095633697E0,1.718750037E-2,-2.653750032E-2,7.837500423E-3
3.098141389E0,-1.333750039E-2,-1.306249946E-2,4.124999978E-3
3.100648391E0,-3.891250119E-2,8.937500417E-3,-9.212499484E-3
3.103154315E0,-3.891250119E-2,2.846249938E-2,-1.897500083E-2
3.105661313E0,-2.186249942E-2,2.241249941E-2,-1.897500083E-2
3.108168774E0,-1.099999994E-3,-1.429999992E-2,-4.399999976E-3
3.110675776E0,1.361249946E-2,-3.629999980E-2,1.154999994E-2
3.113181699E0,1.237499993E-2,-3.135000169E-2,1.883750036E-2
3.115688697E0,1.374999993E-4,-9.349999949E-3,1.759999990E-2
3.118196389E0,-1.099999994E-3,1.993750036E-2,4.124999978E-3
3.120703175E0,1.237499993E-2,3.341250122E-2,-5.637499969E-3
3.123209329E0,2.694999985E-2,6.462499965E-3,-3.162499983E-3
3.125716110E0,3.437500075E-2,-1.553750038E-2,-6.874999963E-4
3.128223802E0,2.089999989E-2,-1.182499994E-2,-3.162499983E-3
3.130730520E0,-5.912499968E-3,6.462499965E-3,-1.292499993E-2
3.133236674E0,-2.914999984E-2,2.846249938E-2,-2.144999988E-2
3.135743441E0,-3.657500073E-2,3.093750030E-2,-2.392499894E-2
3.138251134E0,-2.309999987E-2,-4.537499975E-3,-7.974999957E-3
3.140757982E0,-7.149999961E-3,-4.729999974E-2,1.759999990E-2
3.143264059E0,1.374999993E-4,-4.358749837E-2,2.612499893E-2
3.145770903E0,-3.574999981E-3,-2.034999989E-2,2.736249939E-2
3.148278595E0,1.374999993E-4,1.141249947E-2,1.154999994E-2
3.150785367E0,1.842499897E-2,3.341250122E-2,-1.924999990E-3
3.153291443E0,3.561250120E-2,2.598750032E-2,-7.974999957E-3
3.155798288E0,4.661250114E-2,-2.062499989E-3,-7.974999957E-3
3.158305971E0,3.313750029E-2,-1.182499994E-2,-3.162499983E-3
3.160812973E0,2.612499986E-3,-4.537499975E-3,-4.399999976E-3
3.163318809E0,-3.286249936E-2,2.887499984E-3,-6.737499963E-3
3.165825653E0,-5.238749832E-2,2.117500082E-2,-1.168750040E-2
3.168333346E0,-4.867500067E-2,1.141249947E-2,-9.212499484E-3
3.170840314E0,-2.557500079E-2,-2.282499894E-2,4.124999978E-3
3.173346237E0,1.374999993E-3,-4.111250117E-2,1.278750040E-2
3.175853240E0,1.966249943E-2,-2.406249940E-2,1.636249945E-2
3.178360701E0,2.213750035E-2,4.124999978E-4,7.837500423E-3
3.180867703E0,2.337500080E-2,3.464999795E-2,-1.924999990E-3
3.183373626E0,2.694999985E-2,3.946249932E-2,-1.168750040E-2
3.185880624E0,3.066249937E-2,3.987499978E-3,-4.399999976E-3
3.188388317E0,2.337500080E-2,-2.529999986E-2,3.024999984E-3
3.190895088E0,-2.337499987E-3,-2.158750035E-2,1.787499990E-3
3.193401242E0,-3.038750030E-2,2.887499984E-3,-4.399999976E-3
3.195908009E0,-4.386249930E-2,2.598750032E-2,-1.292499993E-2
3.198415701E0,-3.162499890E-2,3.698749840E-2,-1.773750037E-2
3.200922459E0,-7.149999961E-3,-8.249999955E-4,-1.292499993E-2
3.203428612E0,1.113750041E-2,-3.877500072E-2,5.362499971E-3
3.205935380E0,1.594999991E-2,-3.877500072E-2,1.636249945E-2
3.208443067E0,3.849999979E-3,-1.787500083E-2,2.254999988E-2
3.210949915E0,-2.337499987E-3,8.937500417E-3,1.759999990E-2
3.213455997E0,5.087499972E-3,3.217500076E-2,6.599999964E-3
3.215962841E0,1.594999991E-2,2.241249941E-2,-6.874999963E-4
3.218470476E0,2.818750031E-2,-1.182499994E-2,5.499999970E-4
3.220977324E0,2.942499891E-2,-2.282499894E-2,-1.924999990E-3
3.223483401E0,8.662499487E-3,-7.012499962E-3,-7.974999957E-3
3.225990245E0,-1.691249944E-2,2.117500082E-2,-1.773750037E-2
3.228497937E0,-3.038750030E-2,3.822499886E-2,-2.516249940E-2
3.231004708E0,-3.162499890E-2,2.117500082E-2,-1.539999992E-2
3.233510785E0,-1.581249945E-2,-2.887500077E-2,4.124999978E-3
3.236017629E0,-6.049999967E-3,-5.582499877E-2,2.378750034E-2
3.238525322E0,-3.574999981E-3,-3.987500072E-2,2.612499893E-2
3.241032093E0,-6.049999967E-3,-4.537499975E-3,2.007500082E-2
3.243538252E0,7.424999960E-3,3.575000167E-2,1.787499990E-3
3.246045019E0,3.313750029E-2,4.441250116E-2,-1.168750040E-2
3.248552711E0,5.142499879E-2,1.498750038E-2,-1.292499993E-2
3.251059727E0,4.537500069E-2,-1.553750038E-2,-1.168750040E-2
3.253565650E0,1.471249945E-2,-1.429999992E-2,-9.212499484E-3
3.256072423E0,-2.309999987E-2,-8.249999955E-4,-6.737499963E-3
3.258580115E0,-4.757500067E-2,1.993750036E-2,-6.737499963E-3
3.261087122E0,-4.991250113E-2,2.488750033E-2,-7.974999957E-3
3.263593045E0,-3.533750027E-2,-8.112499490E-3,3.024999984E-3
3.266100043E0,-8.387500420E-3,-4.482499883E-2,1.759999990E-2
3.268607505E0,1.113750041E-2,-4.358749837E-2,1.759999990E-2
3.271114507E0,1.966249943E-2,-1.429999992E-2,1.402499992E-2
3.273620430E0,2.571249940E-2,2.241249941E-2,1.787499990E-3
3.276127428E0,3.066249937E-2,4.675000161E-2,-9.212499484E-3
3.278635120E0,3.189999983E-2,2.722499892E-2,-7.974999957E-3
3.281141891E0,2.571249940E-2,-1.677500084E-2,3.024999984E-3
3.283648045E0,7.424999960E-3,-3.506249934E-2,9.074999951E-3
3.286154836E0,-2.062499896E-2,-1.787500083E-2,4.262499977E-3
3.288662529E0,-3.781250119E-2,8.937500417E-3,-5.637499969E-3
3.291169377E0,-4.015000165E-2,3.341250122E-2,-1.663750038E-2
3.293675434E0,-1.938750036E-2,2.241249941E-2,-1.663750038E-2
3.296182201E0,2.612499986E-3,-1.911249943E-2,-4.399999976E-3
3.298689990E0,1.718750037E-2,-3.877500072E-2,7.837500423E-3
3.301196762E0,1.237499993E-2,-2.887500077E-2,1.512499992E-2
3.303702838E0,1.374999993E-3,-4.537499975E-3,1.512499992E-2
3.306209716E0,4.949999973E-3,2.846249938E-2,4.262499977E-3
3.308717408E0,1.471249945E-2,3.575000167E-2,-6.874999963E-4
3.311224160E0,2.694999985E-2,1.649999991E-3,-6.874999963E-4
3.313730314E0,2.942499891E-2,-2.282499894E-2,5.499999970E-4
3.316237081E0,1.361249946E-2,-1.677500084E-2,-4.399999976E-3
3.318744774E0,-1.209999993E-2,5.224999972E-3,-1.168750040E-2
3.321251545E0,-3.038750030E-2,3.341250122E-2,-2.392499894E-2
3.323757622E0,-3.038750030E-2,3.464999795E-2,-2.392499894E-2
3.326264466E0,-1.938750036E-2,-5.774999969E-3,-5.637499969E-3
3.328772158E0,-6.049999967E-3,-4.963750020E-2,1.512499992E-2
3.331279160E0,1.374999993E-4,-4.606249928E-2,2.736249939E-2
3.333785083E0,-3.574999981E-3,-2.158750035E-2,2.502499893E-2
3.336292071E0,2.612499986E-3,1.388750039E-2,1.402499992E-2
3.338799764E0,1.842499897E-2,4.069999978E-2,-1.924999990E-3
3.341306535E0,3.918749839E-2,2.969999984E-2,-9.212499484E-3
3.343812473E0,4.661250114E-2,-5.774999969E-3,-7.974999957E-3
3.346319471E0,3.189999983E-2,-1.787500083E-2,-4.399999976E-3
3.348827177E0,-4.812499974E-3,-9.349999949E-3,-4.399999976E-3
3.351333948E0,-4.138749838E-2,7.699999958E-3,-7.974999957E-3
3.353840102E0,-5.362499878E-2,2.488750033E-2,-1.292499993E-2
3.356346870E0,-4.386249930E-2,1.264999993E-2,-1.044999994E-2
3.358854562E0,-1.814999990E-2,-2.529999986E-2,4.262499977E-3
3.361361410E0,4.949999973E-3,-4.235000163E-2,1.759999990E-2
3.363867487E0,1.594999991E-2,-2.653750032E-2,1.759999990E-2
3.366374254E0,1.966249943E-2,3.987499978E-3,9.074999951E-3
3.368881947E0,2.461249940E-2,3.946249932E-2,-5.637499969E-3
3.371388795E0,3.561250120E-2,3.946249932E-2,-1.292499993E-2
3.373894872E0,3.561250120E-2,2.887499984E-3,-5.637499969E-3
3.376401716E0,1.966249943E-2,-2.653750032E-2,3.024999984E-3
3.378909336E0,-9.624999948E-3,-1.911249943E-2,4.262499977E-3
3.381416184E0,-3.533750027E-2,3.987499978E-3,-4.399999976E-3
3.383922237E0,-4.386249930E-2,2.364999987E-2,-1.416249946E-2
3.386429081E0,-2.914999984E-2,2.846249938E-2,-1.897500083E-2
3.388936804E0,-7.149999961E-3,-9.349999949E-3,-6.737499963E-3
3.391443575E0,9.899999946E-3,-3.753750026E-2,1.031249948E-2
3.393949652E0,1.471249945E-2,-3.382499889E-2,1.636249945E-2
3.396456496E0,6.187499966E-3,-1.429999992E-2,2.007500082E-2
3.398964188E0,3.849999979E-3,1.264999993E-2,1.031249948E-2
3.401470979E0,8.662499487E-3,3.341250122E-2,5.499999970E-4
3.403977132E0,1.966249943E-2,1.869999990E-2,-6.874999963E-4
3.406483900E0,3.066249937E-2,-1.429999992E-2,1.787499990E-3
3.408991592E0,2.694999985E-2,-1.787500083E-2,5.499999970E-4
3.411498594E0,4.949999973E-3,-4.537499975E-3,-9.212499484E-3
3.414004517E0,-2.309999987E-2,1.993750036E-2,-1.897500083E-2
3.416511284E0,-3.781250119E-2,3.341250122E-2,-2.268750034E-2
3.419018977E0,-3.038750030E-2,1.017499994E-2,-1.168750040E-2
3.421525979E0,-1.457499992E-2,-3.382499889E-2,9.074999951E-3
3.424031902E0,-2.337499987E-3,-4.729999974E-2,2.007500082E-2
3.426538900E0,-1.099999994E-3,-2.887500077E-2,2.254999988E-2
3.429046592E0,1.374999993E-4,5.224999972E-3,1.154999994E-2
3.431553435E0,1.594999991E-2,3.822499886E-2,-1.924999990E-3
3.434059281E0,3.561250120E-2,3.698749840E-2,-1.168750040E-2
3.436566279E0,4.895000160E-2,5.224999972E-3,-1.044999994E-2
3.439073972E0,4.042499885E-2,-1.553750038E-2,-5.637499969E-3
3.441580743E0,8.662499487E-3,-1.429999992E-2,-5.637499969E-3
3.444086897E0,-2.791249938E-2,4.124999978E-4,-4.399999976E-3
3.446593664E0,-5.238749832E-2,1.993750036E-2,-1.044999994E-2
3.449101356E0,-5.115000159E-2,2.117500082E-2,-9.212499484E-3
3.451608204E0,-2.791249938E-2,-1.677500084E-2,5.499999970E-4
3.454114252E0,1.374999993E-3,-4.606249928E-2,1.278750040E-2
3.456621020E0,1.842499897E-2,-3.258749843E-2,1.512499992E-2
3.459128789E0,1.842499897E-2,-5.774999969E-3,1.154999994E-2
3.461635579E0,1.842499897E-2,2.598750032E-2,1.787499990E-3
3.464141733E0,2.337500080E-2,4.193750024E-2,-7.974999957E-3
3.466648476E0,3.066249937E-2,1.498750038E-2,-4.399999976E-3
3.469156169E0,2.694999985E-2,-2.406249940E-2,5.362499971E-3
3.471662940E0,6.187499966E-3,-3.135000169E-2,9.074999951E-3
3.474169094E0,-2.433750033E-2,-5.774999969E-3,1.787499990E-3
3.476675861E0,-4.138749838E-2,1.622499898E-2,-1.292499993E-2
3.479183553E0,-3.533750027E-2,3.575000167E-2,-2.021249942E-2
3.481690555E0,-1.086249948E-2,1.388750039E-2,-1.773750037E-2
3.484196478E0,6.187499966E-3,-2.529999986E-2,-1.924999990E-3
3.486703245E0,1.361249946E-2,-3.877500072E-2,1.031249948E-2
3.489210938E0,6.187499966E-3,-2.406249940E-2,1.759999990E-2
3.491717940E0,1.374999993E-4,4.124999978E-4,1.512499992E-2
3.494223882E0,3.849999979E-3,2.969999984E-2,3.024999984E-3
3.496730880E0,1.594999991E-2,2.969999984E-2,-6.874999963E-4
3.499238572E0,2.818750031E-2,-4.537499975E-3,-6.874999963E-4
3.501745339E0,2.818750031E-2,-2.034999989E-2,-6.874999963E-4
3.504251263E0,1.237499993E-2,-1.058750041E-2,-7.974999957E-3
3.506758261E0,-1.333750039E-2,1.388750039E-2,-1.773750037E-2
3.509265953E0,-2.914999984E-2,3.575000167E-2,-2.392499894E-2
3.511772723E0,-3.038750030E-2,3.093750030E-2,-2.021249942E-2
3.514278877E0,-1.938750036E-2,-2.158750035E-2,3.024999984E-3
3.516785620E0,-7.149999961E-3,-5.706249923E-2,2.254999988E-2
3.519293312E0,-4.812499974E-3,-4.482499883E-2,2.736249939E-2
3.521800176E0,-4.812499974E-3,-1.553750038E-2,2.254999988E-2
3.524306253E0,6.187499966E-3,2.488750033E-2,3.024999984E-3
3.526813020E0,2.694999985E-2,4.317500070E-2,-9.212499484E-3
3.529320712E0,4.537500069E-2,2.117500082E-2,-1.044999994E-2
3.531827560E0,4.771250114E-2,-9.349999949E-3,-6.737499963E-3
3.534333637E0,2.461249940E-2,-1.677500084E-2,-4.399999976E-3
3.536840481E0,-1.086249948E-2,-7.012499962E-3,-5.637499969E-3
3.539348097E0,-4.386249930E-2,1.017499994E-2,-6.737499963E-3
3.541854945E0,-5.362499878E-2,2.488750033E-2,-1.292499993E-2
3.544361022E0,-4.386249930E-2,3.987499978E-3,-4.399999976E-3
3.546867866E0,-1.581249945E-2,-3.011249937E-2,1.031249948E-2
3.549375558E0,8.662499487E-3,-3.987500072E-2,1.636249945E-2
3.551882325E0,2.213750035E-2,-2.034999989E-2,1.278750040E-2
3.554388478E0,2.337500080E-2,1.388750039E-2,5.499999970E-4
3.556895260E0,2.694999985E-2,4.564999789E-2,-1.044999994E-2
3.559402952E0,3.313750029E-2,3.698749840E-2,-1.292499993E-2
3.561909723E0,3.313750029E-2,-4.537499975E-3,-1.924999990E-3
3.564415852E0,1.718750037E-2,-3.011249937E-2,7.837500423E-3
3.566922619E0,-1.457499992E-2,-2.158750035E-2,5.362499971E-3
3.569430312E0,-4.138749838E-2,2.887499984E-3,-1.924999990E-3
3.571937314E0,-4.633750021E-2,2.722499892E-2,-1.292499993E-2
3.574443237E0,-2.681249939E-2,2.598750032E-2,-1.663750038E-2
3.576950235E0,-1.099999994E-3,-1.306249946E-2,-7.974999957E-3
3.579457696E0,1.594999991E-2,-3.753750026E-2,7.837500423E-3
3.581964698E0,1.594999991E-2,-3.135000169E-2,1.512499992E-2
3.584470621E0,6.187499966E-3,-9.349999949E-3,1.759999990E-2
3.586977619E0,4.949999973E-3,1.388750039E-2,1.031249948E-2
3.589485312E0,1.113750041E-2,3.464999795E-2,1.787499990E-3
3.591992160E0,2.213750035E-2,1.141249947E-2,3.024999984E-3
3.594498006E0,2.818750031E-2,-1.787500083E-2,4.262499977E-3
3.597005004E0,2.089999989E-2,-1.911249943E-2,1.787499990E-3
3.599512696E0,-2.337499987E-3,-8.249999955E-4,-7.974999957E-3
3.602019544E0,-2.791249938E-2,2.364999987E-2,-2.021249942E-2
3.604525626E0,-3.286249936E-2,3.464999795E-2,-2.516249940E-2
3.607032394E0,-2.433750033E-2,1.017499994E-2,-1.168750040E-2
3.609540163E0,-9.624999948E-3,-3.629999980E-2,9.074999951E-3
3.612046939E0,-2.337499987E-3,-4.729999974E-2,2.378750034E-2
3.614553016E0,-7.149999961E-3,-2.653750032E-2,2.254999988E-2
3.617059860E0,-4.812499974E-3,7.699999958E-3,1.154999994E-2
3.619567562E0,1.718750037E-2,3.946249932E-2,-4.399999976E-3
3.622074565E0,4.289999977E-2,3.464999795E-2,-1.044999994E-2
3.624581642E0,5.266249925E-2,4.124999978E-4,-7.974999957E-3
3.627087256E0,3.671250120E-2,-1.677500084E-2,-4.399999976E-3
3.629594946E0,1.374999993E-4,-9.349999949E-3,-4.399999976E-3
3.632101948E0,-3.533750027E-2,3.987499978E-3,-7.974999957E-3
3.634607871E0,-5.486249924E-2,2.117500082E-2,-1.168750040E-2
3.637114638E0,-4.757500067E-2,1.746249944E-2,-9.212499484E-3
3.639622331E0,-2.186249942E-2,-2.158750035E-2,5.362499971E-3
3.642129333E0,4.949999973E-3,-4.606249928E-2,1.759999990E-2
3.644635256E0,1.842499897E-2,-2.777500078E-2,1.883750036E-2
3.647142254E0,1.966249943E-2,-2.062499989E-3,1.278750040E-2
3.649649715E0,2.337500080E-2,2.598750032E-2,-1.924999990E-3
3.652156731E0,2.694999985E-2,3.946249932E-2,-9.212499484E-3
3.654662655E0,2.818750031E-2,1.264999993E-2,-5.637499969E-3
3.657169649E0,2.571249940E-2,-2.158750035E-2,4.262499977E-3
3.659677341E0,3.849999979E-3,-2.282499894E-2,6.599999964E-3
3.662184112E0,-2.433750033E-2,-4.537499975E-3,-6.874999963E-4
3.664690261E0,-4.262499884E-2,1.869999990E-2,-1.044999994E-2
3.667197028E0,-3.781250119E-2,3.093750030E-2,-1.773750037E-2
3.669704720E0,-1.333750039E-2,6.462499965E-3,-1.292499993E-2
3.672211497E0,6.187499966E-3,-2.777500078E-2,5.499999970E-4
3.674717651E0,1.361249946E-2,-3.258749843E-2,1.031249948E-2
3.677224413E0,4.949999973E-3,-1.911249943E-2,1.636249945E-2
3.679732105E0,1.374999993E-3,6.462499965E-3,1.278750040E-2
3.682238953E0,7.424999960E-3,3.464999795E-2,1.787499990E-3
3.684745030E0,2.213750035E-2,2.488750033E-2,-4.399999976E-3
3.687251797E0,3.066249937E-2,-9.349999949E-3,-1.924999990E-3
3.689759490E0,2.571249940E-2,-1.911249943E-2,-1.924999990E-3
3.692266338E0,2.612499986E-3,-5.774999969E-3,-7.974999957E-3
3.694772415E0,-1.814999990E-2,1.498750038E-2,-1.292499993E-2
3.697279259E0,-2.914999984E-2,3.341250122E-2,-2.268750034E-2
3.699786951E0,-2.681249939E-2,1.993750036E-2,-1.416249946E-2
3.702293732E0,-1.457499992E-2,-2.887500077E-2,4.262499977E-3
3.704799808E0,-3.574999981E-3,-5.335000157E-2,2.131249942E-2
3.707306639E0,-2.337499987E-3,-3.753750026E-2,2.502499893E-2
3.709814331E0,-6.049999967E-3,-3.299999982E-3,1.759999990E-2
3.712321102E0,8.662499487E-3,3.217500076E-2,3.024999984E-3
3.714827256E0,2.942499891E-2,4.069999978E-2,-1.044999994E-2
3.717334018E0,4.661250114E-2,1.264999993E-2,-9.212499484E-3
3.719841711E0,4.771250114E-2,-1.677500084E-2,-4.399999976E-3
3.722348713E0,2.213750035E-2,-1.677500084E-2,-3.162499983E-3
3.724854636E0,-1.938750036E-2,-5.774999969E-3,-3.162499983E-3
3.727361403E0,-5.115000159E-2,1.622499898E-2,-9.212499484E-3
3.729869326E0,-5.486249924E-2,2.598750032E-2,-1.292499993E-2
3.732376097E0,-3.781250119E-2,-8.249999955E-4,-4.399999976E-3
3.734882251E0,-6.049999967E-3,-3.629999980E-2,9.074999951E-3
3.737389018E0,1.594999991E-2,-3.863750026E-2,1.402499992E-2
3.739896480E0,2.089999989E-2,-1.553750038E-2,1.031249948E-2
3.742403477E0,1.842499897E-2,1.746249944E-2,3.024999984E-3
3.744909400E0,2.213750035E-2,4.564999789E-2,-9.212499484E-3
3.747416398E0,3.313750029E-2,2.598750032E-2,-6.737499963E-3
3.749924076E0,3.066249937E-2,-1.553750038E-2,1.787499990E-3
3.752430924E0,1.361249946E-2,-3.011249937E-2,5.362499971E-3
3.754937001E0,-1.581249945E-2,-1.306249946E-2,5.499999970E-4
3.757443846E0,-3.781250119E-2,1.141249947E-2,-7.974999957E-3
3.759951461E0,-3.781250119E-2,3.217500076E-2,-1.416249946E-2
3.762458309E0,-1.828750037E-2,2.241249941E-2,-1.539999992E-2
3.764964386E0,2.612499986E-3,-2.282499894E-2,-6.874999963E-4
3.767471230E0,1.237499993E-2,-4.235000163E-2,1.154999994E-2
3.769978922E0,9.899999946E-3,-2.887500077E-2,1.636249945E-2
3.772485694E0,3.712499980E-3,-6.874999963E-3,1.883750036E-2
3.774991771E0,1.374999993E-3,2.241249941E-2,9.074999951E-3
3.777498615E0,1.113750041E-2,3.341250122E-2,3.024999984E-3
3.780006297E0,2.337500080E-2,7.699999958E-3,5.499999970E-4
3.782513068E0,3.313750029E-2,-1.911249943E-2,5.499999970E-4
3.785019222E0,1.966249943E-2,-1.553750038E-2,-5.637499969E-3
3.787525989E0,-7.287499961E-3,3.987499978E-3,-1.416249946E-2
3.790033673E0,-2.914999984E-2,3.093750030E-2,-2.021249942E-2
3.792540675E0,-3.409999982E-2,3.464999795E-2,-2.268750034E-2
3.795046569E0,-2.309999987E-2,-8.249999955E-4,-4.399999976E-3
3.797553336E0,-8.387500420E-3,-4.606249928E-2,1.278750040E-2
3.800061028E0,-6.049999967E-3,-4.963750020E-2,2.378750034E-2
3.802568030E0,-6.049999967E-3,-2.406249940E-2,2.254999988E-2
3.805073953E0,-1.099999994E-3,1.622499898E-2,9.074999951E-3
3.807580951E0,2.337500080E-2,4.441250116E-2,-5.637499969E-3
3.810088644E0,4.413750023E-2,3.341250122E-2,-1.416249946E-2
3.812595415E0,5.018749833E-2,-2.062499989E-3,-9.212499484E-3
3.815101338E0,3.189999983E-2,-2.034999989E-2,-5.637499969E-3
3.817608336E0,-3.574999981E-3,-1.182499994E-2,-5.637499969E-3
3.820116033E0,-3.781250119E-2,3.987499978E-3,-4.399999976E-3
3.822622805E0,-5.609999970E-2,2.846249938E-2,-7.974999957E-3
3.825128973E0,-4.881250113E-2,1.498750038E-2,-4.399999976E-3
3.827635740E0,-2.062499896E-2,-2.887500077E-2,9.074999951E-3
3.830143451E0,7.424999960E-3,-4.853750020E-2,1.759999990E-2
3.832650222E0,2.089999989E-2,-2.887500077E-2,1.636249945E-2
3.835156371E0,2.213750035E-2,2.887499984E-3,6.599999964E-3
3.837663138E0,2.571249940E-2,3.822499886E-2,-4.399999976E-3
3.840170831E0,2.942499891E-2,4.193750024E-2,-1.044999994E-2
3.842677679E0,2.818750031E-2,3.987499978E-3,-6.874999963E-4
3.845183756E0,1.718750037E-2,-3.011249937E-2,9.074999951E-3
3.847690600E0,-8.387500420E-3,-3.011249937E-2,1.031249948E-2
3.850198215E0,-3.657500073E-2,-3.299999982E-3,5.499999970E-4
3.852705064E0,-4.509999976E-2,2.364999987E-2,-1.539999992E-2
3.855211140E0,-2.914999984E-2,3.464999795E-2,-2.021249942E-2
3.857717985E0,-3.574999981E-3,3.987499978E-3,-1.292499993E-2
3.860225668E0,1.471249945E-2,-3.258749843E-2,4.262499977E-3
3.862732670E0,1.594999991E-2,-3.258749843E-2,1.278750040E-2
3.865238506E0,4.949999973E-3,-1.787500083E-2,1.759999990E-2
3.867745350E0,1.374999993E-3,1.017499994E-2,1.031249948E-2
3.870253038E0,7.424999960E-3,3.698749840E-2,-1.924999990E-3
3.872759809E0,2.089999989E-2,1.993750036E-2,5.499999970E-4
3.875265944E0,3.066249937E-2,-1.677500084E-2,3.024999984E-3
3.877772711E0,2.447500080E-2,-2.406249940E-2,1.787499990E-3
3.880280403E0,1.374999993E-4,-5.774999969E-3,-6.737499963E-3
3.882787405E0,-2.557500079E-2,1.993750036E-2,-1.773750037E-2
3.885293328E0,-3.162499890E-2,3.822499886E-2,-2.516249940E-2
3.887800326E0,-2.557500079E-2,1.993750036E-2,-1.773750037E-2
3.890308019E0,-9.624999948E-3,-3.258749843E-2,5.362499971E-3
3.892814790E0,1.374999993E-4,-4.963750020E-2,2.254999988E-2
3.895320944E0,-1.099999994E-3,-3.382499889E-2,2.736249939E-2
3.897827711E0,-1.099999994E-3,-3.299999982E-3,2.007500082E-2
3.900335389E0,7.424999960E-3,2.969999984E-2,3.024999984E-3
3.902842237E0,2.942499891E-2,3.341250122E-2,-7.974999957E-3
3.905348314E0,4.289999977E-2,8.937500417E-3,-7.974999957E-3
3.907855082E0,3.918749839E-2,-1.429999992E-2,-4.399999976E-3
3.910362774E0,1.718750037E-2,-9.349999949E-3,-4.399999976E-3
3.912869622E0,-1.938750036E-2,4.124999978E-4,-6.737499963E-3
3.915375699E0,-4.633750021E-2,1.746249944E-2,-1.044999994E-2
3.917882543E0,-5.238749832E-2,2.241249941E-2,-1.416249946E-2
3.920390159E0,-3.657500073E-2,-1.058750041E-2,-6.874999963E-4
3.922897007E0,-8.387500420E-3,-3.629999980E-2,1.278750040E-2
3.925403084E0,9.899999946E-3,-3.382499889E-2,1.883750036E-2
3.927909928E0,1.842499897E-2,-1.058750041E-2,1.402499992E-2
3.930417624E0,2.213750035E-2,1.993750036E-2,-6.874999963E-4
3.932924395E0,2.942499891E-2,4.317500070E-2,-1.168750040E-2
3.935430549E0,3.547500074E-2,1.993750036E-2,-1.044999994E-2
3.937937316E0,3.189999983E-2,-1.677500084E-2,1.787499990E-3
3.940445009E0,8.662499487E-3,-2.777500078E-2,4.262499977E-3
3.942951780E0,-2.433750033E-2,-6.874999963E-3,5.499999970E-4
3.945457934E0,-4.509999976E-2,1.746249944E-2,-7.974999957E-3
3.947964701E0,-3.904999793E-2,3.093750030E-2,-1.897500083E-2
3.950472393E0,-1.333750039E-2,1.264999993E-2,-1.539999992E-2
3.952979391E0,8.662499487E-3,-2.887500077E-2,5.499999970E-4
3.955485314E0,1.718750037E-2,-4.111250117E-2,1.526249945E-2
3.957992316E0,7.424999960E-3,-2.034999989E-2,2.007500082E-2
3.960499778E0,-2.337499987E-3,4.124999978E-4,1.526249945E-2
3.963006780E0,1.374999993E-4,2.598750032E-2,4.262499977E-3
3.965512732E0,1.113750041E-2,2.846249938E-2,-4.399999976E-3
3.968019730E0,2.818750031E-2,-3.299999982E-3,1.787499990E-3
3.970527413E0,3.189999983E-2,-2.158750035E-2,1.787499990E-3
3.973034185E0,1.594999991E-2,-1.182499994E-2,-3.162499983E-3
3.975540108E0,-1.086249948E-2,8.937500417E-3,-1.168750040E-2
3.978047106E0,-3.409999982E-2,3.341250122E-2,-2.144999988E-2
3.980554798E0,-3.657500073E-2,2.722499892E-2,-2.021249942E-2
3.983061569E0,-1.938750036E-2,-1.182499994E-2,-4.399999976E-3
3.985567723E0,-3.574999981E-3,-4.606249928E-2,1.526249945E-2
3.988074490E0,1.374999993E-4,-3.863750026E-2,2.131249942E-2
3.990582260E0,-3.574999981E-3,-1.306249946E-2,1.636249945E-2
3.993089031E0,2.612499986E-3,2.364999987E-2,5.362499971E-3
3.995595108E0,2.571249940E-2,4.193750024E-2,-9.212499484E-3
3.998101875E0,4.537500069E-2,1.869999990E-2,-7.974999957E-3
4.000609552E0,4.647500068E-2,-1.306249946E-2,-4.399999976E-3
4.003116400E0,2.337500080E-2,-1.787500083E-2,-6.874999963E-4
4.005622477E0,-1.333750039E-2,-4.537499975E-3,-3.162499983E-3
4.008129322E0,-4.262499884E-2,1.141249947E-2,-6.737499963E-3
4.010637014E0,-5.115000159E-2,2.722499892E-2,-1.416249946E-2
4.013143772E0,-3.781250119E-2,7.699999958E-3,-9.212499484E-3
4.015649849E0,-1.086249948E-2,-3.506249934E-2,7.837500423E-3
4.018156701E0,9.899999946E-3,-4.111250117E-2,1.636249945E-2
4.020664394E0,1.966249943E-2,-1.677500084E-2,1.402499992E-2
4.023171396E0,2.213750035E-2,8.937500417E-3,5.362499971E-3
4.025677319E0,2.213750035E-2,3.946249932E-2,-6.737499963E-3
4.028184317E0,2.571249940E-2,3.217500076E-2,-6.737499963E-3
4.030691778E0,2.694999985E-2,-8.112499490E-3,1.787499990E-3
4.033198780E0,1.842499897E-2,-3.258749843E-2,9.074999951E-3
4.035704703E0,-7.287499961E-3,-1.911249943E-2,6.599999964E-3
4.038211701E0,-3.533750027E-2,3.987499978E-3,-4.399999976E-3
4.040719394E0,-4.509999976E-2,2.969999984E-2,-1.416249946E-2
4.043226199E0,-2.914999984E-2,2.969999984E-2,-2.144999988E-2
4.045732353E0,-3.574999981E-3,-6.874999963E-3,-1.168750040E-2
4.048239139E0,1.361249946E-2,-3.506249934E-2,1.787499990E-3
4.050746831E0,1.718750037E-2,-2.887500077E-2,1.278750040E-2
4.053253617E0,4.949999973E-3,-1.058750041E-2,1.636249945E-2
4.055759771E0,1.374999993E-4,1.622499898E-2,1.031249948E-2
4.058266539E0,7.424999960E-3,3.341250122E-2,3.024999984E-3
4.060774235E0,2.089999989E-2,1.017499994E-2,5.499999970E-4
4.063281083E0,2.818750031E-2,-2.034999989E-2,1.787499990E-3
4.065787160E0,2.337500080E-2,-1.911249943E-2,-1.924999990E-3
4.068293927E0,1.374999993E-4,4.124999978E-4,-1.044999994E-2
4.070801620E0,-2.186249942E-2,2.722499892E-2,-2.021249942E-2
4.073308468E0,-3.038750030E-2,3.946249932E-2,-2.639999986E-2
4.075814545E0,-2.309999987E-2,8.937500417E-3,-9.212499484E-3
4.078321389E0,-1.209999993E-2,-4.358749837E-2,1.031249948E-2
4.080829081E0,-3.574999981E-3,-5.087500066E-2,2.378750034E-2
4.083335867E0,-6.049999967E-3,-2.887500077E-2,2.502499893E-2
4.085841944E0,-1.099999994E-3,5.224999972E-3,1.526249945E-2
4.088348788E0,1.361249946E-2,3.822499886E-2,5.499999970E-4
4.090856462E0,3.437500075E-2,3.341250122E-2,-1.044999994E-2
4.093363233E0,4.771250114E-2,3.987499978E-3,-7.974999957E-3
4.095869387E0,4.042499885E-2,-2.034999989E-2,-5.637499969E-3
4.098376168E0,9.899999946E-3,-1.182499994E-2,-5.637499969E-3
4.100883860E0,-2.914999984E-2,2.887499984E-3,-5.637499969E-3
4.103390881E0,-5.115000159E-2,2.241249941E-2,-1.168750040E-2
4.105896804E0,-5.004999787E-2,1.869999990E-2,-9.212499484E-3
4.108403572E0,-2.804999985E-2,-1.429999992E-2,5.499999970E-4
4.110911269E0,-2.337499987E-3,-4.111250117E-2,1.402499992E-2
4.113418271E0,1.361249946E-2,-3.506249934E-2,1.526249945E-2
4.115924194E0,1.718750037E-2,-4.537499975E-3,9.074999951E-3
4.118431192E0,1.966249943E-2,3.217500076E-2,-1.924999990E-3
4.120938654E0,3.066249937E-2,4.798749834E-2,-1.168750040E-2
4.123445656E0,3.671250120E-2,1.264999993E-2,-5.637499969E-3
4.125951579E0,2.818750031E-2,-2.653750032E-2,3.024999984E-3
4.128458577E0,1.374999993E-4,-3.011249937E-2,7.837500423E-3
4.130966269E0,-2.914999984E-2,-8.112499490E-3,1.787499990E-3
4.133473025E0,-4.386249930E-2,1.746249944E-2,-7.974999957E-3
4.135979179E0,-3.409999982E-2,3.575000167E-2,-1.649999991E-2
4.138485946E0,-1.086249948E-2,1.264999993E-2,-1.416249946E-2
4.140993654E0,1.237499993E-2,-3.011249937E-2,1.787499990E-3
4.143500502E0,1.966249943E-2,-3.863750026E-2,1.031249948E-2
4.146006579E0,8.662499487E-3,-2.406249940E-2,1.636249945E-2
4.148513346E0,-1.099999994E-3,2.887499984E-3,1.526249945E-2
4.151021033E0,1.374999993E-3,3.217500076E-2,4.262499977E-3
4.153527881E0,1.237499993E-2,2.846249938E-2,1.787499990E-3
4.156034016E0,2.337500080E-2,-6.874999963E-3,3.024999984E-3
4.158540784E0,2.571249940E-2,-2.529999986E-2,3.024999984E-3
4.161048399E0,9.899999946E-3,-1.182499994E-2,-4.399999976E-3
4.163555251E0,-1.209999993E-2,7.699999958E-3,-1.649999991E-2
4.166061328E0,-3.162499890E-2,3.575000167E-2,-2.268750034E-2
4.168568172E0,-2.914999984E-2,2.969999984E-2,-2.021249942E-2
4.171075899E0,-1.581249945E-2,-1.429999992E-2,-1.924999990E-3
4.173582901E0,-7.287499961E-3,-4.606249928E-2,1.526249945E-2
4.176088824E0,-6.049999967E-3,-3.987500072E-2,2.378750034E-2
4.178595591E0,-4.812499974E-3,-1.429999992E-2,1.883750036E-2
4.181103283E0,7.424999960E-3,2.598750032E-2,6.599999964E-3
4.183610285E0,3.189999983E-2,4.069999978E-2,-5.637499969E-3
4.186116208E0,4.537500069E-2,1.746249944E-2,-9.212499484E-3
4.188623206E0,4.289999977E-2,-1.429999992E-2,-6.737499963E-3
4.191130668E0,1.842499897E-2,-1.787500083E-2,-6.737499963E-3
4.193637670E0,-1.828750037E-2,-4.537499975E-3,-5.637499969E-3
4.196143588E0,-4.633750021E-2,1.388750039E-2,-9.212499484E-3
4.198650586E0,-5.115000159E-2,2.722499892E-2,-1.292499993E-2
4.201158278E0,-3.409999982E-2,1.649999991E-3,-3.162499983E-3
4.203665040E0,-6.049999967E-3,-3.753750026E-2,1.031249948E-2
4.206171194E0,1.237499993E-2,-4.235000163E-2,1.883750036E-2
4.208677962E0,1.718750037E-2,-1.677500084E-2,1.526249945E-2
4.211185653E0,1.718750037E-2,1.388750039E-2,5.362499971E-3
4.213692501E0,2.213750035E-2,3.946249932E-2,-6.737499963E-3
4.216198578E0,2.818750031E-2,3.093750030E-2,-6.737499963E-3
4.218705331E0,3.189999983E-2,-1.058750041E-2,3.024999984E-3
4.221213023E0,1.471249945E-2,-3.135000169E-2,9.074999951E-3
4.223719883E0,-1.457499992E-2,-1.787500083E-2,3.024999984E-3
4.226225960E0,-4.138749838E-2,6.462499965E-3,-7.974999957E-3
4.228732804E0,-4.386249930E-2,3.093750030E-2,-1.897500083E-2
4.231240496E0,-2.309999987E-2,2.488750033E-2,-2.021249942E-2
4.233747267E0,1.374999993E-3,-1.306249946E-2,-7.974999957E-3
4.236253344E0,1.718750037E-2,-3.506249934E-2,9.074999951E-3
4.238760188E0,1.347499993E-2,-3.011249937E-2,1.636249945E-2
4.241267881E0,1.237499993E-3,-9.349999949E-3,1.759999990E-2
4.243774652E0,-1.099999994E-3,2.364999987E-2,9.074999951E-3
4.246280772E0,7.424999960E-3,3.217500076E-2,-1.924999990E-3
4.248787539E0,2.571249940E-2,6.462499965E-3,-6.874999963E-4
4.251295231E0,2.942499891E-2,-1.787500083E-2,1.787499990E-3
4.253802238E0,2.323750034E-2,-1.429999992E-2,-1.924999990E-3
4.256308161E0,-6.049999967E-3,5.224999972E-3,-1.292499993E-2
4.258814929E0,-2.928750031E-2,2.969999984E-2,-2.144999988E-2
4.261322621E0,-3.162499890E-2,3.464999795E-2,-2.144999988E-2
4.263829623E0,-2.186249942E-2,-2.062499989E-3,-5.499999970E-3
4.266335531E0,-7.287499961E-3,-4.606249928E-2,1.526249945E-2
4.268842529E0,1.374999993E-4,-4.482499883E-2,2.378750034E-2
4.271349991E0,-2.337499987E-3,-1.911249943E-2,2.254999988E-2
4.273856993E0,2.474999987E-3,1.141249947E-2,1.031249948E-2
4.276362916E0,2.089999989E-2,3.822499886E-2,-4.399999976E-3
4.278869914E0,3.671250120E-2,2.364999987E-2,-7.974999957E-3
4.281377606E0,4.399999976E-2,-5.774999969E-3,-6.737499963E-3
4.283884377E0,3.189999983E-2,-1.911249943E-2,-1.924999990E-3
4.286390300E0,1.374999993E-4,-6.874999963E-3,-4.399999976E-3
4.288897293E0,-3.409999982E-2,5.224999972E-3,-7.974999957E-3
4.291404986E0,-5.128749833E-2,2.364999987E-2,-1.168750040E-2
4.293911757E0,-4.633750021E-2,1.264999993E-2,-9.212499484E-3
4.296417931E0,-2.433750033E-2,-2.406249940E-2,4.262499977E-3
4.298924698E0,2.474999987E-3,-3.863750026E-2,1.031249948E-2
4.301432433E0,2.089999989E-2,-2.406249940E-2,1.278750040E-2
4.303939204E0,2.323750034E-2,5.224999972E-3,6.599999964E-3
4.306445281E0,2.323750034E-2,3.698749840E-2,-4.399999976E-3
4.308952111E0,3.066249937E-2,4.069999978E-2,-9.212499484E-3
4.311459803E0,3.066249937E-2,-8.249999955E-4,-6.874999963E-4
4.313966579E0,2.213750035E-2,-3.011249937E-2,9.074999951E-3
4.316472733E0,-7.287499961E-3,-2.406249940E-2,5.362499971E-3
4.318979500E0,-3.409999982E-2,2.887499984E-3,-1.924999990E-3
4.321487192E0,-4.509999976E-2,2.598750032E-2,-1.416249946E-2
4.323993964E0,-2.928750031E-2,3.588749841E-2,-2.021249942E-2
4.326500118E0,-6.049999967E-3,2.887499984E-3,-1.044999994E-2
4.329006885E0,1.471249945E-2,-3.987500072E-2,3.024999984E-3
4.331514577E0,2.089999989E-2,-3.753750026E-2,1.278750040E-2
4.334021579E0,7.424999960E-3,-1.677500084E-2,1.759999990E-2
4.336527502E0,1.237499993E-3,8.937500417E-3,1.526249945E-2
4.339034510E0,2.474999987E-3,2.846249938E-2,5.362499971E-3
4.341541972E0,1.347499993E-2,1.993750036E-2,4.262499977E-3
4.344048974E0,2.571249940E-2,-1.429999992E-2,6.599999964E-3
4.346554897E0,2.571249940E-2,-2.406249940E-2,5.499999970E-4
4.349061880E0,7.424999960E-3,-5.774999969E-3,-9.212499484E-3
4.351569587E0,-1.704999991E-2,2.117500082E-2,-2.268750034E-2
4.354076358E0,-3.052499890E-2,3.946249932E-2,-2.639999986E-2
4.356582512E0,-2.928750031E-2,2.241249941E-2,-1.649999991E-2
4.359089261E0,-1.581249945E-2,-2.529999986E-2,5.362499971E-3
4.361596953E0,-4.812499974E-3,-5.335000157E-2,2.131249942E-2
4.364103801E0,-6.049999967E-3,-3.863750026E-2,2.378750034E-2
4.366609878E0,-6.049999967E-3,-5.774999969E-3,1.636249945E-2
4.369116645E0,8.662499487E-3,3.341250122E-2,1.787499990E-3
4.371624337E0,3.547500074E-2,4.069999978E-2,-9.212499484E-3
4.374131186E0,5.266249925E-2,1.264999993E-2,-9.212499484E-3
4.376637263E0,4.523750022E-2,-1.306249946E-2,-6.737499963E-3
4.379144107E0,1.113750041E-2,-1.553750038E-2,-6.737499963E-3
4.381651722E0,-2.433750033E-2,-3.299999982E-3,-6.737499963E-3
4.384158570E0,-5.004999787E-2,1.622499898E-2,-1.044999994E-2
4.386664661E0,-4.757500067E-2,2.598750032E-2,-1.044999994E-2
4.389171505E0,-3.162499890E-2,-5.774999969E-3,5.499999970E-4
4.391679173E0,-4.812499974E-3,-3.987500072E-2,1.636249945E-2
4.394185944E0,1.113750041E-2,-4.111250117E-2,1.759999990E-2
4.396692021E0,1.718750037E-2,-1.553750038E-2,1.402499992E-2
4.399198879E0,2.089999989E-2,1.993750036E-2,1.787499990E-3
4.401706571E0,2.942499891E-2,4.688749835E-2,-9.212499484E-3
4.404213358E0,3.313750029E-2,2.598750032E-2,-4.399999976E-3
4.406719511E0,2.818750031E-2,-1.677500084E-2,4.262499977E-3
4.409226279E0,8.662499487E-3,-3.258749843E-2,1.031249948E-2
4.411733971E0,-2.309999987E-2,-1.787500083E-2,4.262499977E-3
4.414240973E0,-4.138749838E-2,7.699999958E-3,-6.737499963E-3
4.416746896E0,-3.904999793E-2,3.464999795E-2,-1.773750037E-2
4.419253663E0,-1.828750037E-2,2.241249941E-2,-1.897500083E-2
4.421761356E0,2.474999987E-3,-1.677500084E-2,-4.399999976E-3
4.424268358E0,1.594999991E-2,-3.258749843E-2,5.362499971E-3
4.426774281E0,1.223750040E-2,-2.653750032E-2,1.402499992E-2
4.429281269E0,1.237499993E-3,-4.537499975E-3,1.278750040E-2
4.431788961E0,4.949999973E-3,2.722499892E-2,4.262499977E-3
4.434295732E0,1.471249945E-2,3.093750030E-2,-6.874999963E-4
4.436801645E0,2.447500080E-2,1.649999991E-3,5.499999970E-4
4.439308643E0,2.323750034E-2,-2.158750035E-2,4.262499977E-3
4.441816336E0,9.899999946E-3,-1.429999992E-2,-3.162499983E-3
4.444323184E0,-1.333750039E-2,6.462499965E-3,-1.044999994E-2
4.446829242E0,-2.928750031E-2,3.217500076E-2,-2.392499894E-2
4.449336086E0,-3.162499890E-2,3.588749841E-2,-2.392499894E-2
4.451843778E0,-1.704999991E-2,-5.774999969E-3,-5.499999970E-3
4.454350549E0,-2.337499987E-3,-4.729999974E-2,1.402499992E-2
4.456856626E0,1.237499993E-3,-4.358749837E-2,2.736249939E-2
4.459363471E0,-3.574999981E-3,-1.787500083E-2,2.378750034E-2
4.461871086E0,3.712499980E-3,1.498750038E-2,1.154999994E-2
4.464377934E0,2.089999989E-2,3.822499886E-2,-1.924999990E-3
4.466884088E0,3.918749839E-2,2.241249941E-2,-6.737499963E-3
4.469390855E0,4.647500068E-2,-9.349999949E-3,-3.162499983E-3
4.471898557E0,2.694999985E-2,-1.677500084E-2,-3.162499983E-3
4.474405559E0,-6.049999967E-3,-5.774999969E-3,-4.399999976E-3
4.476911507E0,-4.138749838E-2,6.462499965E-3,-1.168750040E-2
4.479418274E0,-5.362499878E-2,2.488750033E-2,-1.649999991E-2
4.481925966E0,-4.138749838E-2,8.937500417E-3,-1.044999994E-2
4.484432977E0,-1.457499992E-2,-2.529999986E-2,4.262499977E-3
4.486938900E0,8.662499487E-3,-4.111250117E-2,1.759999990E-2
4.489445889E0,1.966249943E-2,-2.282499894E-2,1.526249945E-2
4.491953351E0,1.842499897E-2,6.462499965E-3,9.074999951E-3
4.494460353E0,2.213750035E-2,3.698749840E-2,-4.399999976E-3
4.496966276E0,3.423750028E-2,3.464999795E-2,-1.044999994E-2
4.499473274E0,3.313750029E-2,-4.537499975E-3,-1.924999990E-3
4.501980966E0,1.842499897E-2,-2.529999986E-2,4.262499977E-3
4.504487737E0,-9.624999948E-3,-1.677500084E-2,4.262499977E-3
4.506993660E0,-3.533750027E-2,7.699999958E-3,-4.399999976E-3
4.509500658E0,-4.262499884E-2,2.846249938E-2,-1.539999992E-2
4.512008341E0,-2.804999985E-2,2.846249938E-2,-2.021249942E-2
4.514515112E0,-4.812499974E-3,-9.349999949E-3,-6.737499963E-3
4.517021266E0,1.471249945E-2,-3.987500072E-2,9.074999951E-3
4.519528033E0,1.223750040E-2,-3.135000169E-2,1.526249945E-2
4.522035725E0,2.474999987E-3,-1.182499994E-2,2.007500082E-2
4.524542574E0,-1.099999994E-3,1.388750039E-2,1.154999994E-2
4.527048651E0,6.187499966E-3,3.093750030E-2,1.787499990E-3
4.529555500E0,2.089999989E-2,1.388750039E-2,-1.924999990E-3
4.532063115E0,3.189999983E-2,-1.677500084E-2,1.787499990E-3
4.534569963E0,2.694999985E-2,-1.677500084E-2,1.787499990E-3
4.537076040E0,4.949999973E-3,-8.249999955E-4,-7.974999957E-3
4.539582884E0,-2.309999987E-2,2.364999987E-2,-1.649999991E-2
4.542090577E0,-3.657500073E-2,3.698749840E-2,-2.516249940E-2
4.544597348E0,-2.804999985E-2,8.937500417E-3,-1.416249946E-2
4.547103425E0,-1.333750039E-2,-3.506249934E-2,7.837500423E-3
4.549610269E0,-2.337499987E-3,-4.853750020E-2,2.007500082E-2
4.552117961E0,-2.337499987E-3,-2.653750032E-2,2.502499893E-2
4.554624757E0,-2.337499987E-3,4.124999978E-3,1.278750040E-2
4.557130910E0,1.223750040E-2,3.822499886E-2,-1.924999990E-3
4.559637692E0,3.423750028E-2,3.217500076E-2,-1.168750040E-2
4.562145384E0,4.895000160E-2,-8.249999955E-4,-1.044999994E-2
4.564652386E0,4.166249931E-2,-1.787500083E-2,-6.737499963E-3
4.567158328E0,8.662499487E-3,-9.349999949E-3,-4.399999976E-3
4.569665095E0,-2.681249939E-2,5.224999972E-3,-3.162499983E-3
4.572172788E0,-5.238749832E-2,2.241249941E-2,-9.212499484E-3
4.574679795E0,-5.128749833E-2,2.241249941E-2,-1.044999994E-2
4.577185948E0,-3.052499890E-2,-1.787500083E-2,5.499999970E-4
4.579692726E0,1.237499993E-3,-4.482499883E-2,1.278750040E-2
4.582200187E0,1.842499897E-2,-3.011249937E-2,1.636249945E-2
4.584707266E0,1.966249943E-2,-2.062499989E-3,1.154999994E-2
4.587213112E0,2.089999989E-2,2.722499892E-2,1.787499990E-3
4.589720110E0,2.213750035E-2,4.193750024E-2,-5.499999970E-3
4.592227803E0,2.694999985E-2,1.017499994E-2,-6.874999963E-4
4.594734574E0,2.213750035E-2,-2.887500077E-2,9.074999951E-3
4.597240728E0,1.237499993E-3,-3.011249937E-2,9.074999951E-3
4.599747572E0,-2.433750033E-2,-5.774999969E-3,5.499999970E-4
4.602255187E0,-4.138749838E-2,2.241249941E-2,-1.416249946E-2
4.604762064E0,-3.286249936E-2,3.698749840E-2,-2.144999988E-2
4.607268141E0,-9.624999948E-3,1.622499898E-2,-1.897500083E-2
4.609774994E0,9.899999946E-3,-2.763750032E-2,-1.924999990E-3
4.612282687E0,1.594999991E-2,-3.753750026E-2,9.074999951E-3
4.614789458E0,7.424999960E-3,-2.529999986E-2,1.636249945E-2
4.617295535E0,-3.574999981E-3,2.887499984E-3,1.883750036E-2
4.619802379E0,1.374999993E-4,3.093750030E-2,6.599999964E-3
4.622309634E0,1.471249945E-2,2.598750032E-2,1.787499990E-3
4.624816753E0,2.818750031E-2,-8.112499490E-3,1.787499990E-3
4.627323002E0,2.818750031E-2,-2.529999986E-2,-6.874999963E-4
4.629829769E0,9.899999946E-3,-1.058750041E-2,-7.974999957E-3
4.632337461E0,-1.581249945E-2,1.498750038E-2,-1.897500083E-2
4.634844232E0,-2.928750031E-2,4.193750024E-2,-2.392499894E-2
4.637350386E0,-2.804999985E-2,3.341250122E-2,-2.144999988E-2
4.639857384E0,-1.581249945E-2,-1.911249943E-2,5.499999970E-4
4.642364846E0,-3.574999981E-3,-5.706249923E-2,2.378750034E-2
4.644871848E0,-4.812499974E-3,-4.482499883E-2,2.859999985E-2
4.647377771E0,-6.049999967E-3,-1.553750038E-2,2.626249939E-2
4.649884769E0,4.949999973E-3,2.364999987E-2,9.074999951E-3
4.652392442E0,2.571249940E-2,4.317500070E-2,-6.737499963E-3
4.654899213E0,4.289999977E-2,2.117500082E-2,-1.044999994E-2
4.657405155E0,4.523750022E-2,-1.058750041E-2,-7.974999957E-3
4.659912153E0,2.213750035E-2,-1.911249943E-2,-5.499999970E-3
4.662419846E0,-1.209999993E-2,-8.112499490E-3,-6.737499963E-3
4.664926617E0,-4.138749838E-2,1.388750039E-2,-9.212499484E-3
4.667432771E0,-5.238749832E-2,3.093750030E-2,-1.168750040E-2
4.669939557E0,-4.028749838E-2,5.224999972E-3,-3.162499983E-3
4.672447249E0,-1.457499992E-2,-3.258749843E-2,1.031249948E-2
4.674954098E0,9.899999946E-3,-4.111250117E-2,1.402499992E-2
4.677460174E0,2.089999989E-2,-2.282499894E-2,1.154999994E-2
4.679966942E0,2.213750035E-2,1.498750038E-2,3.024999984E-3
4.682474634E0,2.694999985E-2,4.688749835E-2,-6.737499963E-3
4.684981482E0,3.423750028E-2,3.588749841E-2,-9.212499484E-3
4.687487559E0,3.189999983E-2,-1.182499994E-2,-6.874999963E-4
4.689994403E0,1.471249945E-2,-3.011249937E-2,5.362499971E-3
4.692502096E0,-1.581249945E-2,-2.034999989E-2,4.262499977E-3
4.695008853E0,-4.028749838E-2,5.224999972E-3,-3.162499983E-3
4.697514930E0,-4.262499884E-2,3.093750030E-2,-1.539999992E-2
4.700021759E0,-2.309999987E-2,2.969999984E-2,-1.649999991E-2
4.702529451E0,3.712499980E-3,-1.306249946E-2,-3.162499983E-3
4.705036203E0,1.718750037E-2,-3.987500072E-2,7.837500423E-3
4.707542357E0,1.347499993E-2,-3.135000169E-2,1.402499992E-2
4.710049125E0,2.474999987E-3,-1.058750041E-2,1.526249945E-2
4.712556793E0,2.474999987E-3,1.869999990E-2,7.837500423E-3
4.715063795E0,6.187499966E-3,3.217500076E-2,3.024999984E-3
4.717569718E0,2.089999989E-2,8.937500417E-3,3.024999984E-3
4.720076485E0,2.694999985E-2,-2.158750035E-2,5.362499971E-3
4.722584408E0,1.966249943E-2,-1.787500083E-2,-1.924999990E-3
4.725091180E0,-3.574999981E-3,-2.062499989E-3,-9.212499484E-3
4.727597333E0,-2.557500079E-2,2.598750032E-2,-2.392499894E-2
4.730104101E0,-3.162499890E-2,3.822499886E-2,-2.639999986E-2
4.732611562E0,-2.186249942E-2,8.937500417E-3,-1.044999994E-2
4.735118559E0,-9.624999948E-3,-3.506249934E-2,1.031249948E-2
4.737624713E0,-2.337499987E-3,-4.729999974E-2,2.378750034E-2
4.740131480E0,-6.049999967E-3,-2.653750032E-2,2.131249942E-2
4.742639168E0,-3.574999981E-3,5.224999972E-3,1.278750040E-2
4.745145939E0,1.594999991E-2,3.822499886E-2,-3.162499983E-3
4.747652093E0,3.918749839E-2,2.969999984E-2,-7.974999957E-3
4.750158918E0,5.266249925E-2,4.124999978E-4,-4.399999976E-3
4.752666533E0,3.437500075E-2,-1.677500084E-2,-3.162499983E-3
4.755173386E0,-3.574999981E-3,-8.112499490E-3,-5.637499969E-3
4.757679463E0,-3.657500073E-2,5.224999972E-3,-1.044999994E-2
4.760186307E0,-4.991250113E-2,2.117500082E-2,-1.539999992E-2
4.762694000E0,-4.262499884E-2,1.869999990E-2,-1.044999994E-2
4.765200771E0,-1.938750036E-2,-2.406249940E-2,4.262499977E-3
4.767706848E0,2.612499986E-3,-4.235000163E-2,1.759999990E-2
4.770213692E0,1.471249945E-2,-2.887500077E-2,1.883750036E-2
4.772721307E0,1.966249943E-2,-3.299999982E-3,1.278750040E-2
4.775228156E0,1.966249943E-2,2.598750032E-2,-1.924999990E-3
4.777734285E0,2.213750035E-2,3.575000167E-2,-6.737499963E-3
4.780241053E0,2.818750031E-2,6.462499965E-3,-1.924999990E-3
4.782748740E0,2.337500080E-2,-2.406249940E-2,5.362499971E-3
4.785255742E0,3.712499980E-3,-2.282499894E-2,6.599999964E-3
4.787761665E0,-2.804999985E-2,4.124999978E-4,-4.399999976E-3
4.790268696E0,-4.262499884E-2,2.117500082E-2,-1.539999992E-2
4.792776158E0,-3.409999982E-2,2.969999984E-2,-2.392499894E-2
4.795283156E0,-8.387500420E-3,1.649999991E-3,-1.292499993E-2
4.797789079E0,1.113750041E-2,-2.887500077E-2,4.262499977E-3
4.800296077E0,1.594999991E-2,-3.135000169E-2,1.402499992E-2
4.802803769E0,4.949999973E-3,-1.911249943E-2,1.759999990E-2
4.805310540E0,-2.337499987E-3,5.224999972E-3,9.074999951E-3
4.807816463E0,4.949999973E-3,3.093750030E-2,5.499999970E-4
4.810323461E0,2.213750035E-2,2.117500082E-2,-1.924999990E-3
4.812831154E0,3.313750029E-2,-1.058750041E-2,5.499999970E-4
4.815337925E0,2.694999985E-2,-1.677500084E-2,-6.874999963E-4
4.817844079E0,3.712499980E-3,-3.299999982E-3,-9.212499484E-3
4.820350836E0,-2.309999987E-2,1.622499898E-2,-1.663750038E-2
4.822858528E0,-3.533750027E-2,3.575000167E-2,-2.268750034E-2
4.825365377E0,-2.914999984E-2,1.622499898E-2,-1.539999992E-2
4.827871419E0,-1.333750039E-2,-3.258749843E-2,9.074999951E-3
4.830378187E0,-3.574999981E-3,-5.211250111E-2,2.378750034E-2
4.832885956E0,-3.574999981E-3,-3.258749843E-2,2.736249939E-2
4.835392727E0,-4.812499974E-3,-4.537499975E-3,1.759999990E-2
4.837898790E0,7.424999960E-3,2.969999984E-2,3.024999984E-3
4.840405634E0,2.818750031E-2,3.822499886E-2,-7.974999957E-3
4.842913327E0,4.647500068E-2,8.937500417E-3,-7.974999957E-3
4.845420098E0,4.771250114E-2,-1.553750038E-2,-4.399999976E-3
4.847926175E0,1.966249943E-2,-1.306249946E-2,-4.399999976E-3
4.850433019E0,-2.186249942E-2,-8.249999955E-4,-1.924999990E-3
4.852940711E0,-5.115000159E-2,1.622499898E-2,-1.044999994E-2
4.855447713E0,-5.486249924E-2,2.364999987E-2,-1.168750040E-2
4.857953636E0,-3.533750027E-2,-3.299999982E-3,-4.399999976E-3
4.860460634E0,-4.812499974E-3,-3.629999980E-2,9.074999951E-3
4.862968125E0,1.471249945E-2,-3.629999980E-2,1.526249945E-2
4.865475127E0,2.213750035E-2,-1.182499994E-2,1.031249948E-2
4.867981050E0,2.089999989E-2,2.117500082E-2,1.787499990E-3
4.870488067E0,2.461249940E-2,4.317500070E-2,-7.974999957E-3
4.872995528E0,3.066249937E-2,2.241249941E-2,-5.637499969E-3
4.875502540E0,2.571249940E-2,-1.911249943E-2,1.787499990E-3
4.878008463E0,7.424999960E-3,-2.887500077E-2,5.362499971E-3
4.880515447E0,-1.814999990E-2,-8.112499490E-3,1.787499990E-3
4.883022908E0,-3.657500073E-2,1.869999990E-2,-1.044999994E-2
4.885529910E0,-3.409999982E-2,3.464999795E-2,-1.897500083E-2
4.888036064E0,-1.581249945E-2,1.993750036E-2,-1.663750038E-2
4.890542831E0,6.187499966E-3,-2.282499894E-2,-6.874999963E-4
4.893050524E0,1.471249945E-2,-4.111250117E-2,1.278750040E-2
4.895557372E0,8.662499487E-3,-2.777500078E-2,2.007500082E-2
4.898063449E0,-2.337499987E-3,-5.774999969E-3,2.131249942E-2
4.900570293E0,-3.574999981E-3,2.364999987E-2,1.031249948E-2
4.903077908E0,8.662499487E-3,2.969999984E-2,3.024999984E-3
4.905584679E0,2.337500080E-2,4.124999978E-4,1.787499990E-3
4.908090833E0,3.189999983E-2,-2.406249940E-2,1.787499990E-3
4.910597667E0,1.842499897E-2,-1.306249946E-2,-5.637499969E-3
4.913105360E0,-7.149999961E-3,8.937500417E-3,-1.663750038E-2
4.915612131E0,-2.681249939E-2,3.575000167E-2,-2.392499894E-2
4.918118300E0,-2.804999985E-2,3.575000167E-2,-2.392499894E-2
4.920625067E0,-1.938750036E-2,-5.774999969E-3,-4.399999976E-3
4.923132759E0,-9.624999948E-3,-4.729999974E-2,1.759999990E-2
4.925639497E0,-4.812499974E-3,-4.963750020E-2,2.612499893E-2
4.928145650E0,-6.049999967E-3,-2.282499894E-2,2.502499893E-2
4.930652423E0,1.374999993E-3,1.869999990E-2,1.031249948E-2
4.933160115E0,2.213750035E-2,4.675000161E-2,-5.637499969E-3
4.935667117E0,4.166249931E-2,2.598750032E-2,-1.044999994E-2
4.938173040E0,4.771250114E-2,-5.774999969E-3,-7.974999957E-3
4.940680038E0,2.942499891E-2,-2.034999989E-2,-7.974999957E-3
4.943187500E0,-8.387500420E-3,-6.874999963E-3,-6.737499963E-3
4.945694502E0,-4.015000165E-2,1.017499994E-2,-6.737499963E-3
4.948200425E0,-5.362499878E-2,2.969999984E-2,-1.044999994E-2
4.950707423E0,-4.262499884E-2,1.017499994E-2,-3.162499983E-3
4.953215115E0,-1.814999990E-2,-3.382499889E-2,1.031249948E-2
4.955721886E0,7.424999960E-3,-4.606249928E-2,1.636249945E-2
4.958227809E0,1.842499897E-2,-2.529999986E-2,1.526249945E-2
4.960734778E0,2.089999989E-2,6.462499965E-3,6.599999964E-3
4.963242471E0,2.571249940E-2,3.822499886E-2,-5.637499969E-3
4.965749242E0,2.818750031E-2,4.069999978E-2,-1.044999994E-2
