"Time (s)","Acceleration x (m/s^2)","Acceleration y (m/s^2)","Acceleration z (m/s^2)"
1.579837000E-2,-2.070000172E-1,9.373050690E0,8.539500237E-1
1.830418400E-2,-1.789500117E-1,9.475950241E0,9.790500402E-1
2.081064600E-2,-1.279500127E-1,9.736950874E0,1.336050034E0
2.331803100E-2,-1.395000052E-2,1.000500011E1,1.756950140E0
2.582456900E-2,1.170000061E-1,1.009200001E1,2.017950058E0
2.833031800E-2,1.870500147E-1,9.946050644E0,2.098950148E0
3.083678000E-2,2.680500150E-1,9.591000557E0,1.896000147E0
3.334424100E-2,2.820000052E-1,9.237000465E0,1.594050050E0
3.585070500E-2,2.970000207E-1,9.067049980E0,1.357050061E0
3.835659400E-2,3.229500055E-1,9.187050819E0,1.336050034E0
4.086305400E-2,2.629500031E-1,9.522000313E0,1.483950019E0
4.337043800E-2,2.389500141E-1,9.886050224E0,1.561050057E0
4.587690200E-2,1.339500099E-1,1.001700020E1,1.438050032E0
4.838273300E-2,1.695000008E-2,9.880950928E0,1.209000111E0
5.088919200E-2,-7.605000585E-2,9.610050201E0,9.930000305E-1
5.339680800E-2,-1.309500039E-1,9.373050690E0,8.779500127E-1
5.590327100E-2,-1.429500133E-1,9.334950447E0,1.053000093E0
5.840913300E-2,-7.800000161E-2,9.562050819E0,1.429050088E0
6.091559200E-2,7.905000448E-2,9.976950645E0,1.843050122E0
6.342297700E-2,2.059500068E-1,1.026900005E1,2.092050076E0
6.592951700E-2,2.970000207E-1,1.014405060E1,2.121000051E0
6.843530000E-2,3.160500228E-1,9.732000351E0,1.905000091E0
7.094176000E-2,2.970000207E-1,9.274950027E0,1.606050134E0
7.344914500E-2,2.659500241E-1,9.052050591E0,1.339950085E0
7.595568500E-2,2.560500205E-1,9.175050735E0,1.267950058E0
7.846146800E-2,2.340000123E-1,9.607950211E0,1.410000086E0
8.096800500E-2,1.750500053E-1,1.003200054E1,1.528950095E0
8.347538900E-2,9.300000221E-2,1.015395069E1,1.459950089E0
8.598208400E-2,-2.295000106E-2,9.967050552E0,1.222950101E0
8.848774200E-2,-1.360500008E-1,9.603000641E0,9.859500527E-1
9.099443200E-2,-1.960500032E-1,9.349050522E0,8.760000467E-1
9.350181700E-2,-1.909500062E-1,9.337050438E0,1.039050102E0
9.600835700E-2,-9.300000221E-2,9.565050125E0,1.399950027E0
9.851411700E-2,4.800000042E-2,9.960000038E0,1.885950089E0
1.010206530E-1,1.870500147E-1,1.021395016E1,2.133000135E0
1.035280380E-1,2.490000129E-1,1.012005043E1,2.116050005E0
1.060345010E-1,3.109500110E-1,9.706050873E0,1.920000076E0
1.085402950E-1,2.989500165E-1,9.273000717E0,1.588950038E0
1.110468310E-1,2.869500220E-1,9.064050674E0,1.342950106E0
1.135542160E-1,2.680500150E-1,9.163050652E0,1.186950088E0
1.160606790E-1,2.580000162E-1,9.558000565E0,1.282950044E0
1.185665490E-1,2.370000184E-1,9.955050468E0,1.447950125E0
1.210730090E-1,1.510500014E-1,1.011600018E1,1.398000121E0
1.235803940E-1,5.205000192E-2,9.925950050E0,1.209000111E0
1.260870880E-1,-1.395000052E-2,9.586050034E0,9.810000658E-1
1.285929640E-1,-9.300000221E-2,9.316050529E0,8.830500245E-1
1.310994240E-1,-8.505000174E-2,9.262950897E0,1.017000079E0
1.336068080E-1,-6.405000389E-2,9.483000755E0,1.375950098E0
1.361132720E-1,6.405000389E-2,9.847050667E0,1.900950074E0
1.386191560E-1,1.510500014E-1,1.017300034E1,2.281050205E0
1.411256150E-1,2.269500047E-1,1.017300034E1,2.323950052E0
1.436330770E-1,2.779500186E-1,9.850050926E0,2.014950037E0
1.461395410E-1,2.749500275E-1,9.373050690E0,1.635000110E0
1.486453440E-1,2.509500086E-1,9.097949982E0,1.312050104E0
1.511518800E-1,2.200500071E-1,9.175050735E0,1.210950017E0
1.536592650E-1,1.990500093E-1,9.550050735E0,1.303950071E0
1.561659590E-1,1.819500029E-1,1.002000046E1,1.458000064E0
1.586715790E-1,1.099500060E-1,1.019205093E1,1.386000037E0
1.611780380E-1,1.395000052E-2,1.001295090E1,1.170000076E0
1.636854230E-1,-7.095000148E-2,9.711000443E0,9.570000172E-1
1.661921940E-1,-1.210500076E-1,9.426000595E0,9.049500227E-1
1.686977320E-1,-1.450500041E-1,9.328050613E0,1.009950042E0
1.712045000E-1,-8.295000345E-2,9.451950073E0,1.363950014E0
1.737118070E-1,3.299999982E-2,9.780000687E0,1.843050122E0
1.762183480E-1,1.789500117E-1,1.005600071E1,2.166000128E0
1.787241560E-1,2.580000162E-1,1.007205009E1,2.248050213E0
1.812306930E-1,3.250500262E-1,9.826050758E0,2.061000109E0
1.837380770E-1,3.180000186E-1,9.394950867E0,1.683000088E0
1.862445410E-1,2.989500165E-1,9.076050758E0,1.363950014E0
1.887503230E-1,2.440500110E-1,9.085950851E0,1.197000027E0
1.912568590E-1,2.179500163E-1,9.361050606E0,1.182000041E0
1.937642440E-1,1.600500047E-1,9.816000938E0,1.362000108E0
1.962709380E-1,1.360500008E-1,1.008705044E1,1.326000094E0
1.987765310E-1,6.000000238E-2,1.005600071E1,1.144050002E0
2.012832210E-1,-4.005000368E-2,9.744000435E0,9.960000515E-1
2.037906060E-1,-7.800000161E-2,9.397050858E0,8.970000148E-1
2.062970690E-1,-1.120500043E-1,9.246000290E0,1.024049997E0
2.088029150E-1,-7.095000148E-2,9.345000267E0,1.386000037E0
2.113093750E-1,6.000000238E-2,9.691950798E0,1.852950096E0
2.138167600E-1,2.010000050E-1,1.011105061E1,2.241000175E0
2.163233000E-1,2.779500186E-1,1.022595024E1,2.383949995E0
2.188290550E-1,2.700000107E-1,9.946050644E0,2.224050045E0
2.213355920E-1,2.680500150E-1,9.436050415E0,1.888950109E0
2.238429760E-1,2.250000089E-1,9.055050850E0,1.479000092E0
2.263494400E-1,2.250000089E-1,9.064050674E0,1.197000027E0
2.288552900E-1,2.179500163E-1,9.466950417E0,1.174950004E0
2.313617500E-1,1.960500032E-1,9.972000122E0,1.326000094E0
2.338691340E-1,1.429500133E-1,1.025205040E1,1.359000087E0
2.363758290E-1,3.299999982E-2,1.012305069E1,1.242000103E0
2.388814200E-1,-5.700000376E-2,9.751950264E0,1.017000079E0
2.413881100E-1,-1.170000061E-1,9.414000511E0,8.110500574E-1
2.438954950E-1,-1.120500043E-1,9.297000885E0,8.899500370E-1
2.464019580E-1,-5.700000376E-2,9.397050858E0,1.249050021E0
2.489077910E-1,2.895000204E-2,9.727950096E0,1.819050074E0
2.514142500E-1,1.240500063E-1,1.005795002E1,2.299950123E0
2.539216350E-1,2.440500110E-1,1.017105007E1,2.407950163E0
2.564281750E-1,2.899500132E-1,9.928950310E0,2.190000057E0
2.589339530E-1,3.280500174E-1,9.430950165E0,1.744950056E0
2.614404900E-1,2.800500095E-1,9.064050674E0,1.381050110E0
2.639478750E-1,2.250000089E-1,9.036000252E0,1.182000041E0
2.664545690E-1,2.080500126E-1,9.400050163E0,1.185000062E0
2.689601510E-1,1.819500029E-1,9.832950592E0,1.303950071E0
2.714668420E-1,1.480500102E-1,1.013895035E1,1.309050083E0
2.739739950E-1,5.700000376E-2,1.003695011E1,1.102950096E0
2.764806900E-1,-3.795000166E-2,9.735000610E0,9.139500260E-1
2.789863140E-1,-1.309500039E-1,9.402000427E0,8.850000501E-1
2.814930040E-1,-1.570500135E-1,9.261000633E0,9.670500755E-1
2.840003890E-1,-1.090500057E-1,9.354000092E0,1.326000094E0
2.865069290E-1,-9.000000544E-3,9.700950623E0,1.852950096E0
2.890126790E-1,1.120500043E-1,1.004895020E1,2.275950193E0
2.915192150E-1,2.149500102E-1,1.015605068E1,2.455950022E0
2.940266000E-1,2.460000068E-1,9.943050385E0,2.323950052E0
2.965330630E-1,2.610000074E-1,9.498000145E0,1.908000112E0
2.990389100E-1,2.539499998E-1,9.124050140E0,1.479000092E0
3.015453690E-1,2.340000123E-1,9.073950768E0,1.185000062E0
3.040527540E-1,1.960500032E-1,9.369000435E0,1.149000049E0
3.065594480E-1,1.669500023E-1,9.814050674E0,1.302000046E0
3.090650290E-1,1.720500141E-1,1.020195007E1,1.338000059E0
3.115717200E-1,8.100000024E-2,1.025400066E1,1.189050078E0
3.140791040E-1,7.050000131E-3,9.952950478E0,1.000050068E0
3.165855680E-1,-8.295000345E-2,9.570000648E0,8.569500446E-1
3.190913950E-1,-1.020000055E-1,9.345000267E0,8.929500580E-1
3.215978550E-1,-1.069500074E-1,9.342000008E0,1.197000027E0
3.241052390E-1,-1.800000109E-2,9.598050117E0,1.711050034E0
3.266117800E-1,9.795000404E-2,9.967050552E0,2.137950182E0
3.291175590E-1,2.149500102E-1,1.011795044E1,2.338950157E0
3.316240950E-1,2.460000068E-1,9.967050552E0,2.257050037E0
3.341314800E-1,2.610000074E-1,9.558000565E0,1.956000090E0
3.366379440E-1,2.370000184E-1,9.115050316E0,1.546050072E0
3.391437750E-1,1.939500123E-1,8.977950096E0,1.273050070E0
3.416502340E-1,1.770000011E-1,9.241950035E0,1.197000027E0
3.441576190E-1,1.840500087E-1,9.732000351E0,1.258950114E0
3.466643130E-1,1.390500069E-1,1.011300087E1,1.288050056E0
3.491699200E-1,7.605000585E-2,1.014195061E1,1.117950082E0
3.516766100E-1,-1.800000109E-2,9.855000496E0,9.499500394E-1
3.541839940E-1,-8.805000782E-2,9.529050827E0,8.520000577E-1
3.566904580E-1,-1.189500093E-1,9.273000717E0,8.659500480E-1
3.591962940E-1,-9.495000541E-2,9.316050529E0,1.141950011E0
3.617027540E-1,1.395000052E-2,9.589050293E0,1.659000039E0
3.642101380E-1,1.530000120E-1,9.960000038E0,2.178000212E0
3.667166790E-1,2.779500186E-1,1.019505024E1,2.442000151E0
3.692224530E-1,3.330000043E-1,1.008405018E1,2.383949995E0
3.717289900E-1,3.180000186E-1,9.700950623E0,2.073000193E0
3.742363740E-1,2.989500165E-1,9.187050819E0,1.620000124E0
3.767430680E-1,2.700000107E-1,9.025950432E0,1.245000005E0
3.792486890E-1,2.389500141E-1,9.280050278E0,1.168050051E0
3.817553790E-1,2.080500126E-1,9.778050423E0,1.213050008E0
3.842625330E-1,1.720500141E-1,1.021905041E1,1.306950092E0
3.867692270E-1,7.200000435E-2,1.021605015E1,1.209000111E0
3.892748230E-1,-5.400000140E-2,9.912000656E0,9.760500193E-1
3.917815130E-1,-1.500000060E-1,9.547950745E0,8.089500666E-1
3.942888980E-1,-1.620000005E-1,9.337050438E0,8.020500541E-1
3.967954380E-1,-1.380000114E-1,9.357000351E0,1.075049996E0
3.993012170E-1,-7.095000148E-2,9.574050903E0,1.579950094E0
4.018077540E-1,4.995000362E-2,9.883050919E0,2.098950148E0
4.043151380E-1,1.770000011E-1,1.007205009E1,2.403000116E0
4.068216020E-1,2.680500150E-1,9.964950562E0,2.350950003E0
4.093274380E-1,2.850000262E-1,9.646050453E0,2.041949987E0
4.118338980E-1,2.920500040E-1,9.265950203E0,1.618050098E0
4.143412820E-1,2.560500205E-1,9.057000160E0,1.285050035E0
4.168479770E-1,2.250000089E-1,9.208050728E0,1.177050114E0
4.193535970E-1,2.059500068E-1,9.586050034E0,1.246950030E0
4.218602870E-1,2.010000050E-1,9.960000038E0,1.288050056E0
4.243676720E-1,1.290000081E-1,1.012800026E1,1.138950109E0
4.268741360E-1,8.400000632E-2,9.960000038E0,9.280500412E-1
4.293800010E-1,-1.395000052E-2,9.673050880E0,8.160000443E-1
4.318864600E-1,-4.005000368E-2,9.433050156E0,8.659500480E-1
4.343938450E-1,-2.295000106E-2,9.382950783E0,1.137000084E0
4.369003850E-1,0.000000000E0,9.507000923E0,1.575000048E0
4.394061360E-1,1.080000028E-1,9.796950340E0,2.056050062E0
4.419126720E-1,2.269500047E-1,1.005105019E1,2.335950136E0
4.444200570E-1,2.800500095E-1,1.005795002E1,2.359950066E0
4.469265200E-1,2.659500241E-1,9.763950348E0,2.170950174E0
4.494323710E-1,2.490000129E-1,9.318000793E0,1.780950069E0
4.519388310E-1,2.130000144E-1,9.067049980E0,1.431000113E0
4.544462160E-1,1.699500084E-1,9.175050735E0,1.222950101E0
4.569529100E-1,1.819500029E-1,9.589050293E0,1.185000062E0
4.594585200E-1,1.699500084E-1,1.000095081E1,1.267950058E0
4.619652110E-1,9.600000083E-2,1.021605015E1,1.173000097E0
4.644725950E-1,1.950000064E-3,1.004895020E1,9.840000272E-1
4.669790590E-1,-8.295000345E-2,9.727950096E0,8.400000334E-1
4.694849200E-1,-1.360500008E-1,9.436050415E0,8.020500541E-1
4.719913790E-1,-1.450500041E-1,9.337050438E0,1.000050068E0
4.744987640E-1,-6.900000572E-2,9.469050407E0,1.402950048E0
4.770053040E-1,5.505000427E-2,9.772950172E0,1.945950150E0
4.795110880E-1,1.990500093E-1,1.001505089E1,2.278950214E0
4.820175470E-1,2.869500220E-1,1.004895020E1,2.379000187E0
4.845250090E-1,3.180000186E-1,9.802050591E0,2.212050200E0
4.870314720E-1,3.349500299E-1,9.361050606E0,1.816950083E0
4.895373140E-1,3.180000186E-1,9.043050766E0,1.453050017E0
4.920440040E-1,2.749500275E-1,9.105000496E0,1.221000075E0
4.945513880E-1,2.419500053E-1,9.469050407E0,1.197000027E0
4.970578520E-1,2.200500071E-1,9.936000824E0,1.258950114E0
4.995634620E-1,1.669500023E-1,1.018305016E1,1.161000013E0
5.020701530E-1,3.299999982E-2,1.008195019E1,1.000050068E0
5.045775370E-1,-6.105000153E-2,9.697050095E0,8.449500203E-1
5.070840780E-1,-1.260000020E-1,9.376049995E0,7.560000420E-1
5.095898470E-1,-1.090500057E-1,9.265950203E0,9.310500622E-1
5.120963880E-1,-5.895000324E-2,9.415950775E0,1.350000024E0
5.146037730E-1,6.195000187E-2,9.759000778E0,1.905000091E0
5.171102370E-1,1.819500029E-1,1.007700062E1,2.371950150E0
5.196160110E-1,2.509500086E-1,1.014195061E1,2.514000177E0
5.221225470E-1,2.730000019E-1,9.880950928E0,2.370000124E0
5.246299320E-1,2.899500132E-1,9.415950775E0,1.924950123E0
5.271366260E-1,2.560500205E-1,9.048000336E0,1.465050101E0
5.296422560E-1,1.939500123E-1,9.097949982E0,1.197000027E0
5.321489460E-1,1.360500008E-1,9.448050499E0,1.189050078E0
5.346563310E-1,1.290000081E-1,9.922050476E0,1.234950066E0
5.371627940E-1,1.270500124E-1,1.022295094E1,1.249050021E0
5.396686070E-1,3.795000166E-2,1.017795086E1,1.087050080E0
5.421750670E-1,-3.495000303E-2,9.856950760E0,8.850000501E-1
5.446824510E-1,-8.505000174E-2,9.546000481E0,6.559500098E-1
5.471889150E-1,-1.279500127E-1,9.330000877E0,7.150500417E-1
5.496947650E-1,-3.495000303E-2,9.306000710E0,1.218000054E0
5.522012250E-1,4.800000042E-2,9.637050629E0,1.884000063E0
5.547086860E-1,1.960500032E-1,1.004100037E1,2.470050097E0
5.572151500E-1,3.709500134E-1,1.022295094E1,2.478000164E0
5.597209820E-1,3.780000210E-1,1.004895020E1,2.418000221E0
5.622274420E-1,3.660000265E-1,9.409049988E0,1.956000090E0
5.647348260E-1,2.899500132E-1,8.847000122E0,1.362000108E0
5.672412900E-1,1.530000120E-1,8.902050018E0,1.222950101E0
5.697471450E-1,1.750500053E-1,9.364050865E0,1.252050042E0
5.722538350E-1,1.650000066E-1,9.960000038E0,1.387950063E0
5.747612200E-1,1.339500099E-1,1.026195049E1,1.318950057E0
5.772676830E-1,8.595000207E-2,1.013205051E1,9.930000305E-1
5.797735440E-1,1.395000052E-2,9.739950180E0,7.390500307E-1
5.822800040E-1,-8.295000345E-2,9.352050781E0,5.910000205E-1
5.847873890E-1,-9.300000221E-2,9.217950821E0,7.699500322E-1
5.872939290E-1,-4.905000329E-2,9.321000099E0,1.206000090E0
5.897997120E-1,2.595000155E-2,9.675000191E0,1.845000029E0
5.923061720E-1,1.750500053E-1,1.002195072E1,2.335950136E0
5.948135570E-1,2.490000129E-1,1.018995094E1,2.557050228E0
5.973200970E-1,2.820000052E-1,1.003395081E1,2.454000235E0
5.998258760E-1,2.610000074E-1,9.613050461E0,2.113950014E0
6.023324130E-1,2.460000068E-1,9.145950317E0,1.675950050E0
6.048397970E-1,1.819500029E-1,8.983050346E0,1.333050013E0
6.073464920E-1,1.510500014E-1,9.256050110E0,1.182000041E0
6.098521270E-1,1.789500117E-1,9.816000938E0,1.230000019E0
6.123588170E-1,2.010000050E-1,1.027605057E1,1.254000068E0
6.148662020E-1,1.390500069E-1,1.036905003E1,1.161000013E0
6.173727420E-1,2.100000158E-2,1.005600071E1,9.670500755E-1
6.198784980E-1,-6.105000153E-2,9.579000473E0,7.489500642E-1
6.223850340E-1,-8.805000782E-2,9.250950813E0,7.369500399E-1
6.248924190E-1,-8.295000345E-2,9.261000633E0,9.600000381E-1
6.273988820E-1,4.095000029E-2,9.558000565E0,1.495950103E0
6.299046560E-1,1.309500039E-1,9.976950645E0,2.098950148E0
6.324111920E-1,2.059500068E-1,1.019700050E1,2.427000046E0
6.349185770E-1,2.419500053E-1,1.003695011E1,2.482050180E0
6.374250400E-1,2.419500053E-1,9.582000732E0,2.110949993E0
6.399308860E-1,2.250000089E-1,9.072000504E0,1.579950094E0
6.424373460E-1,1.840500087E-1,8.854050636E0,1.213050008E0
6.449447300E-1,1.530000120E-1,9.127050400E0,1.141950011E0
6.474514250E-1,1.650000066E-1,9.646050453E0,1.291950107E0
6.499572710E-1,1.600500047E-1,1.008900070E1,1.407000065E0
6.524637410E-1,9.105000645E-2,1.020195007E1,1.249050021E0
6.549711250E-1,2.400000021E-2,9.936000824E0,9.330000281E-1
6.574775890E-1,-4.695000127E-2,9.505050659E0,7.180500627E-1
6.599834350E-1,-1.000500023E-1,9.226950645E0,7.060500383E-1
6.624899130E-1,-9.000000358E-2,9.213000298E0,1.066950083E0
6.649972980E-1,-4.050000105E-3,9.523950577E0,1.588950038E0
6.675038380E-1,1.270500124E-1,9.912000656E0,2.161950111E0
6.700096080E-1,2.179500163E-1,1.018305016E1,2.502000093E0
6.725161390E-1,2.939999998E-1,1.011300087E1,2.463000059E0
6.750235240E-1,2.749500275E-1,9.748950005E0,2.238000154E0
6.775299870E-1,2.700000107E-1,9.238950729E0,1.807050109E0
6.800358340E-1,2.340000123E-1,8.997000694E0,1.369050026E0
6.825423030E-1,1.750500053E-1,9.164999962E0,1.198950052E0
6.850496880E-1,1.600500047E-1,9.601050377E0,1.245000005E0
6.875563820E-1,1.339500099E-1,1.009905052E1,1.357050061E0
6.900619970E-1,9.795000404E-2,1.030200005E1,1.266000032E0
6.925686830E-1,-1.950000064E-3,1.012005043E1,1.033950090E0
6.950760670E-1,-7.095000148E-2,9.679950714E0,7.939500213E-1
6.975826080E-1,-1.380000114E-1,9.321000099E0,6.700500250E-1
7.000883770E-1,-1.549500078E-1,9.148050308E0,8.569500446E-1
7.025949420E-1,-1.090500057E-1,9.322950363E0,1.362000108E0
7.051022500E-1,0.000000000E0,9.732000351E0,2.037000179E0
7.076087910E-1,1.290000081E-1,1.011600018E1,2.461050034E0
7.101145600E-1,1.939500123E-1,1.017105007E1,2.523000002E0
7.126211150E-1,2.440500110E-1,9.843000412E0,2.262000084E0
7.151285000E-1,2.460000068E-1,9.286950111E0,1.813950062E0
7.176351940E-1,2.269500047E-1,8.941950798E0,1.383000016E0
7.201408100E-1,2.110500038E-1,9.001950264E0,1.137000084E0
7.226475000E-1,2.010000050E-1,9.436050415E0,1.165950060E0
7.251548850E-1,2.269500047E-1,9.996000290E0,1.264050007E0
7.276613480E-1,1.789500117E-1,1.024695015E1,1.201050043E0
7.301669640E-1,7.200000435E-2,1.007205009E1,1.003050089E0
7.326736450E-1,-2.805000171E-2,9.658050537E0,8.400000334E-1
7.351810290E-1,-1.000500023E-1,9.298950195E0,7.819500566E-1
7.376875700E-1,-1.090500057E-1,9.211050034E0,9.550500512E-1
7.401933390E-1,-6.900000572E-2,9.397050858E0,1.387950063E0
7.426998760E-1,4.800000042E-2,9.778050423E0,1.936050057E0
7.452072600E-1,1.840500087E-1,1.011300087E1,2.431950092E0
7.477137240E-1,2.110500038E-1,1.013205051E1,2.554050207E0
7.502195700E-1,2.269500047E-1,9.802050591E0,2.305050135E0
7.527260300E-1,2.200500071E-1,9.334950447E0,1.855050087E0
7.552334140E-1,2.110500038E-1,9.048000336E0,1.423950076E0
7.577401080E-1,2.010000050E-1,9.120000839E0,1.192050099E0
7.602457240E-1,1.669500023E-1,9.529050827E0,1.204050064E0
7.627524180E-1,1.770000011E-1,9.973950386E0,1.333050013E0
7.652598030E-1,1.150500029E-1,1.020705032E1,1.267950058E0
7.677662660E-1,4.095000029E-2,1.007505035E1,1.042950034E0
7.702721120E-1,-5.400000140E-2,9.754050255E0,7.750500441E-1
7.727785570E-1,-1.140000075E-1,9.495000839E0,7.300500274E-1
7.752859420E-1,-1.570500135E-1,9.406949997E0,9.070500135E-1
7.777924820E-1,-1.309500039E-1,9.481050491E0,1.309050083E0
7.802982510E-1,-4.005000368E-2,9.723000526E0,1.872000098E0
7.828048070E-1,9.300000221E-2,9.973950386E0,2.287950039E0
7.853121910E-1,1.870500147E-1,1.000995064E1,2.338950157E0
7.878186550E-1,2.539499998E-1,9.804000854E0,2.209050179E0
7.903245010E-1,2.700000107E-1,9.451950073E0,1.869000077E0
7.928309750E-1,2.800500095E-1,9.172050476E0,1.525050044E0
7.953383590E-1,2.460000068E-1,9.184050560E0,1.350000024E0
7.978450540E-1,2.250000089E-1,9.439949989E0,1.314000010E0
8.003506690E-1,2.220000178E-1,9.807000160E0,1.321050048E0
8.028573790E-1,1.789500117E-1,1.005600071E1,1.204050064E0
8.053647640E-1,1.290000081E-1,1.006305027E1,9.139500260E-1
8.078712270E-1,7.050000131E-3,9.844950676E0,7.630500197E-1
8.103770740E-1,-8.805000782E-2,9.594000816E0,7.780500650E-1
8.128835280E-1,-1.240500063E-1,9.442950249E0,9.499500394E-1
8.153909130E-1,-1.090500057E-1,9.438000679E0,1.282950044E0
8.178974530E-1,-3.000000119E-2,9.591000557E0,1.716000080E0
8.204032230E-1,1.150500029E-1,9.864000320E0,2.086950064E0
8.229097590E-1,2.179500163E-1,1.006305027E1,2.334000111E0
8.254171440E-1,2.899500132E-1,1.002705002E1,2.320050001E0
8.279238380E-1,3.040500283E-1,9.718050003E0,2.098950148E0
8.304294530E-1,2.629500031E-1,9.304050446E0,1.747050047E0
8.329361530E-1,2.509500086E-1,9.091050148E0,1.405050039E0
8.354433060E-1,2.220000178E-1,9.304050446E0,1.204050064E0
8.379500840E-1,2.130000144E-1,9.782999992E0,1.204050064E0
8.404568890E-1,1.600500047E-1,1.015605068E1,1.225050092E0
8.429622950E-1,5.505000427E-2,1.020405006E1,1.110000014E0
8.454696770E-1,-8.805000782E-2,9.943050385E0,9.450000525E-1
8.479762180E-1,-1.480500102E-1,9.577050209E0,7.920000553E-1
8.504819870E-1,-1.840500087E-1,9.342000008E0,8.160000443E-1
8.529884940E-1,-1.380000114E-1,9.400050163E0,1.087050080E0
8.554958790E-1,-5.205000192E-2,9.652950287E0,1.558050036E0
8.580023420E-1,9.300000221E-2,9.981000900E0,2.092050076E0
8.605081890E-1,2.220000178E-1,1.011105061E1,2.371950150E0
8.630146530E-1,3.180000186E-1,9.972000122E0,2.344050169E0
8.655220380E-1,3.660000265E-1,9.606000900E0,2.017950058E0
8.680287320E-1,3.690000176E-1,9.177000046E0,1.611000061E0
8.705343470E-1,3.420000076E-1,9.043050766E0,1.306950092E0
8.730410180E-1,2.749500275E-1,9.292050362E0,1.221000075E0
8.755484020E-1,2.680500150E-1,9.751950264E0,1.306950092E0
8.780548660E-1,2.220000178E-1,1.010805035E1,1.326000094E0
8.805607120E-1,1.480500102E-1,1.017105007E1,1.156050086E0
8.830671920E-1,1.395000052E-2,9.922050476E0,8.899500370E-1
8.855745760E-1,-9.000000358E-2,9.523950577E0,7.009500265E-1
8.880811170E-1,-1.380000114E-1,9.253950119E0,7.440000176E-1
8.905868860E-1,-1.120500043E-1,9.270000458E0,1.017000079E0
8.930934170E-1,-3.495000303E-2,9.550050735E0,1.567950130E0
8.956008020E-1,1.050000042E-1,9.916950226E0,2.133000135E0
8.981072660E-1,2.220000178E-1,1.018005085E1,2.475000143E0
9.006131120E-1,2.970000207E-1,1.005795002E1,2.506050110E0
9.031195370E-1,3.160500228E-1,9.627000809E0,2.212050200E0
9.056269220E-1,3.130500019E-1,9.205950737E0,1.825950146E0
9.081336160E-1,2.869500220E-1,9.076050758E0,1.467000127E0
9.106392320E-1,2.800500095E-1,9.357000351E0,1.297050118E0
9.131459220E-1,2.440500110E-1,9.796950340E0,1.312050104E0
9.156533070E-1,1.960500032E-1,1.013505077E1,1.318950057E0
9.181597700E-1,1.000500023E-1,1.018305016E1,1.158000112E0
9.206656160E-1,1.950000064E-3,9.955050468E0,8.899500370E-1
9.231720660E-1,-4.500000179E-2,9.631950378E0,6.840000153E-1
9.256794500E-1,-7.095000148E-2,9.433050156E0,6.460500360E-1
9.281859910E-1,-4.005000368E-2,9.397050858E0,8.779500127E-1
9.306917600E-1,1.200000010E-2,9.579000473E0,1.399950027E0
9.331982970E-1,1.270500124E-1,9.820950508E0,2.013000011E0
9.357056040E-1,2.460000068E-1,1.000095081E1,2.383949995E0
9.382121450E-1,3.090000153E-1,9.969000816E0,2.413050175E0
9.407179140E-1,3.570000231E-1,9.643950462E0,2.154000044E0
9.432244470E-1,3.640500307E-1,9.261000633E0,1.756950140E0
9.457318310E-1,3.160500228E-1,9.088050842E0,1.458000064E0
9.482385250E-1,2.659500241E-1,9.214950562E0,1.347000122E0
9.507441410E-1,2.250000089E-1,9.571950912E0,1.363950014E0
9.532508110E-1,1.789500117E-1,9.958050728E0,1.314000010E0
9.557581960E-1,1.339500099E-1,1.011105061E1,1.057950020E0
9.582647360E-1,4.995000362E-2,9.972000122E0,7.699500322E-1
9.607705050E-1,-3.495000303E-2,9.661050797E0,6.319500208E-1
9.632770330E-1,-9.000000358E-2,9.403950691E0,6.960000396E-1
9.657843410E-1,-1.140000075E-1,9.316050529E0,9.450000525E-1
9.682908810E-1,-4.905000329E-2,9.471000671E0,1.407000065E0
9.707966500E-1,1.150500029E-1,9.763950348E0,1.956000090E0
9.733031820E-1,2.939999998E-1,9.981000900E0,2.341050148E0
9.758105660E-1,3.469500244E-1,1.003200054E1,2.458050013E0
9.783170300E-1,3.970500231E-1,9.772950172E0,2.322000027E0
9.808228760E-1,4.000500143E-1,9.402000427E0,2.008050203E0
9.833295520E-1,3.400500119E-1,9.136050224E0,1.599000096E0
9.858369370E-1,2.460000068E-1,9.205950737E0,1.374000072E0
9.883434010E-1,1.990500093E-1,9.586050034E0,1.279950023E0
9.908492470E-1,1.819500029E-1,1.004595089E1,1.290000081E0
9.933557060E-1,1.080000028E-1,1.027395058E1,1.162950039E0
9.958630910E-1,2.100000158E-2,1.008900070E1,8.730000257E-1
9.983696310E-1,-6.105000153E-2,9.720000267E0,6.360000372E-1
1.000875401E0,-9.705000371E-2,9.409049988E0,5.530500412E-1
1.003381864E0,-6.599999964E-2,9.309000015E0,7.270500064E-1
1.005889326E0,-4.050000105E-3,9.439949989E0,1.194000006E0
1.008395789E0,8.595000207E-2,9.784950256E0,1.807050109E0
1.010901635E0,2.110500038E-1,1.003695011E1,2.323950052E0
1.013408115E0,2.749500275E-1,1.002900028E1,2.467950106E0
1.015915500E0,2.779500186E-1,9.663000107E0,2.274000168E0
1.018422194E0,2.700000107E-1,9.234000206E0,1.927050114E0
1.020927809E0,2.659500241E-1,9.048000336E0,1.575000048E0
1.023434504E0,2.130000144E-1,9.187050819E0,1.381050110E0
1.025941888E0,1.510500014E-1,9.565050125E0,1.327950120E0
1.028448352E0,1.530000120E-1,9.934050560E0,1.333050013E0
1.030954198E0,1.150500029E-1,1.011795044E1,1.194000006E0
1.033460652E0,7.605000585E-2,9.976950645E0,8.760000467E-1
1.035968037E0,0.000000000E0,9.649050713E0,5.980500579E-1
1.038474578E0,-6.900000572E-2,9.397050858E0,5.449500084E-1
1.040980347E0,-6.405000389E-2,9.313050270E0,7.420500517E-1
1.043486864E0,1.200000010E-2,9.451950073E0,1.197000027E0
1.045994172E0,9.105000645E-2,9.699000359E0,1.822050095E0
1.048500712E0,1.990500093E-1,9.961950302E0,2.353049994E0
1.051006482E0,2.869500220E-1,1.006995010E1,2.596950054E0
1.053513018E0,3.160500228E-1,9.871050835E0,2.475000143E0
1.056020403E0,3.210000098E-1,9.451950073E0,2.095050097E0
1.058526866E0,2.680500150E-1,9.166950226E0,1.671000123E0
1.061032712E0,2.389500141E-1,9.157950401E0,1.411950111E0
1.063539167E0,1.630500108E-1,9.466950417E0,1.314000010E0
1.066046782E0,1.480500102E-1,9.886050224E0,1.315950036E0
1.068553246E0,1.099500060E-1,1.019505024E1,1.230000019E0
1.071059092E0,5.205000192E-2,1.019205093E1,9.690000415E-1
1.073565552E0,-4.200000316E-2,9.895050049E0,6.480000019E-1
1.076072931E0,-1.140000075E-1,9.567000389E0,5.620500445E-1
1.078579472E0,-1.260000020E-1,9.388050079E0,6.769500375E-1
1.081085241E0,-1.330500096E-1,9.436050415E0,1.033950090E0
1.083591777E0,-4.695000127E-2,9.615000725E0,1.618050098E0
1.086099144E0,4.500000179E-2,9.864000320E0,2.133000135E0
1.088605608E0,1.309500039E-1,9.973950386E0,2.437050104E0
1.091111454E0,1.750500053E-1,9.856950760E0,2.389050007E0
1.093618144E0,2.389500141E-1,9.531000137E0,2.121000051E0
1.096125298E0,2.389500141E-1,9.153000832E0,1.735050082E0
1.098631992E0,2.320500165E-1,9.040950775E0,1.458000064E0
1.101137608E0,1.990500093E-1,9.238950729E0,1.306950092E0
1.103644298E0,1.819500029E-1,9.637050629E0,1.279950023E0
1.106151683E0,1.870500147E-1,1.005105019E1,1.245000005E0
1.108658223E0,1.600500047E-1,1.018695068E1,1.000050068E0
1.111163992E0,4.800000042E-2,9.993000031E0,7.660500407E-1
1.113670452E0,-4.500000179E-2,9.649050713E0,6.169500351E-1
1.116177831E0,-1.170000061E-1,9.352050781E0,6.700500250E-1
1.118684372E0,-1.240500063E-1,9.292050362E0,9.720000625E-1
1.121190141E0,-7.095000148E-2,9.457050323E0,1.458000064E0
1.123696678E0,7.200000435E-2,9.844950676E0,2.050950050E0
1.126204062E0,1.939500123E-1,1.012995052E1,2.479950190E0
1.128710526E0,2.509500086E-1,1.007505035E1,2.581050158E0
1.131216372E0,2.659500241E-1,9.673050880E0,2.379000187E0
1.133723062E0,2.659500241E-1,9.217950821E0,1.963050127E0
1.136230206E0,2.539499998E-1,9.024000168E0,1.549050093E0
1.138736900E0,2.220000178E-1,9.241950035E0,1.302000046E0
1.141242747E0,1.750500053E-1,9.699000359E0,1.267950058E0
1.143749206E0,1.309500039E-1,1.010595036E1,1.315950036E0
1.146256619E0,7.605000585E-2,1.024200058E1,1.144050002E0
1.148763082E0,-3.299999982E-2,1.004100037E1,8.610000610E-1
1.151268928E0,-1.279500127E-1,9.703950882E0,6.120000482E-1
1.153775388E0,-1.810500026E-1,9.382950783E0,5.740500093E-1
1.156282778E0,-1.840500087E-1,9.297000885E0,8.089500666E-1
1.158789318E0,-1.450500041E-1,9.460050583E0,1.318950057E0
1.161295087E0,-3.495000303E-2,9.796950340E0,1.992000103E0
1.163801624E0,1.030500084E-1,1.004100037E1,2.446050167E0
1.166309018E0,2.220000178E-1,1.004595089E1,2.557050228E0
1.168815482E0,2.899500132E-1,9.711000443E0,2.329050064E0
1.171321328E0,3.229500055E-1,9.253950119E0,1.888950109E0
1.173827788E0,3.040500283E-1,9.001950264E0,1.513050079E0
1.176335398E0,2.820000052E-1,9.154950142E0,1.330950022E0
1.178841862E0,2.610000074E-1,9.594000816E0,1.333050013E0
1.181347708E0,2.250000089E-1,1.002900028E1,1.351950049E0
1.183854167E0,1.650000066E-1,1.019505024E1,1.174950004E0
1.186361542E0,5.505000427E-2,1.003200054E1,8.329500556E-1
1.188868082E0,-9.000000358E-2,9.661050797E0,5.719500184E-1
1.191373852E0,-1.549500078E-1,9.352050781E0,5.670000315E-1
1.193880388E0,-1.840500087E-1,9.301050186E0,8.160000443E-1
1.196387701E0,-1.570500135E-1,9.451950073E0,1.330950022E0
1.198894241E0,-1.395000052E-2,9.730050087E0,1.917000055E0
1.201400011E0,1.290000081E-1,1.002705002E1,2.398950100E0
1.203906778E0,2.130000144E-1,1.009395027E1,2.584950209E0
1.206413932E0,2.509500086E-1,9.799950600E0,2.406000137E0
1.208920626E0,2.610000074E-1,9.364050865E0,2.020050049E0
1.211426241E0,2.800500095E-1,9.085950851E0,1.620000124E0
1.213932932E0,2.200500071E-1,9.136050224E0,1.354950070E0
1.216440316E0,1.870500147E-1,9.462000847E0,1.300050020E0
1.218946857E0,1.530000120E-1,9.886050224E0,1.339950085E0
1.221452626E0,1.429500133E-1,1.018995094E1,1.246950030E0
1.223959085E0,5.700000376E-2,1.019700050E1,1.015050054E0
1.226466470E0,-3.795000166E-2,9.924000740E0,7.200000286E-1
1.228973011E0,-1.189500093E-1,9.630000114E0,6.510000229E-1
1.231478780E0,-1.549500078E-1,9.421050072E0,8.260500431E-1
1.233985316E0,-1.330500096E-1,9.358950615E0,1.173000097E0
1.236492688E0,-1.800000109E-2,9.582000732E0,1.696950078E0
1.238999151E0,1.770000011E-1,1.002495003E1,2.233050108E0
1.241504998E0,3.010500073E-1,1.021605015E1,2.434050083E0
1.244011457E0,3.349500299E-1,9.997950554E0,2.367000103E0
1.246518874E0,3.469500244E-1,9.451950073E0,2.053950071E0
1.249025568E0,3.160500228E-1,8.962050438E0,1.632000089E0
1.251531183E0,2.629500031E-1,8.892000198E0,1.351950049E0
1.254037874E0,2.610000074E-1,9.321000099E0,1.282950044E0
1.256545269E0,2.460000068E-1,9.856950760E0,1.357050061E0
1.259051733E0,2.029500157E-1,1.025700092E1,1.291950107E0
1.261557579E0,9.300000221E-2,1.023000050E1,1.027050018E0
1.264064039E0,-4.500000179E-2,9.784950256E0,7.540500164E-1
1.266571413E0,-1.740000099E-1,9.313050270E0,5.140500069E-1
1.269077954E0,-1.930500120E-1,9.187050819E0,6.439500451E-1
1.271583723E0,-1.240500063E-1,9.390000343E0,1.069950104E0
1.274090259E0,-2.805000171E-2,9.718050003E0,1.624950051E0
1.276597644E0,1.150500029E-1,9.996000290E0,2.193000078E0
1.279104108E0,2.580000162E-1,1.012800026E1,2.533050060E0
1.281609954E0,3.330000043E-1,9.964950562E0,2.499000072E0
1.284116413E0,3.469500244E-1,9.574050903E0,2.209050179E0
1.286623789E0,3.730500042E-1,9.153000832E0,1.732950091E0
1.289130483E0,3.490500152E-1,9.024000168E0,1.347000122E0
1.291636099E0,2.970000207E-1,9.304050446E0,1.297050118E0
1.294142789E0,2.629500031E-1,9.816000938E0,1.342950106E0
1.296650198E0,2.110500038E-1,1.024695015E1,1.342950106E0
1.299156738E0,1.099500060E-1,1.032105064E1,1.144050002E0
1.301662507E0,9.000000544E-3,9.988950729E0,7.969500422E-1
1.304168967E0,-1.020000055E-1,9.571950912E0,5.910000205E-1
1.306676336E0,-1.620000005E-1,9.294000626E0,5.860500336E-1
1.309182877E0,-1.519500017E-1,9.292050362E0,9.280500412E-1
1.311688646E0,-5.205000192E-2,9.595950127E0,1.513050079E0
1.314195183E0,7.395000011E-2,9.936000824E0,2.104050159E0
1.316702548E0,2.419500053E-1,1.014405060E1,2.430000067E0
1.319209243E0,3.250500262E-1,9.981000900E0,2.494050026E0
1.321714858E0,3.690000176E-1,9.637050629E0,2.178000212E0
1.324221548E0,4.069500268E-1,9.234000206E0,1.762050033E0
1.326728952E0,3.520500064E-1,9.036000252E0,1.395000100E0
1.329235415E0,2.779500186E-1,9.129000664E0,1.150950074E0
1.331741031E0,2.299500108E-1,9.426000595E0,1.201050043E0
1.334247721E0,1.909500062E-1,9.816000938E0,1.276050091E0
1.336755096E0,1.390500069E-1,1.012305069E1,1.150950074E0
1.339261636E0,5.700000376E-2,1.007700062E1,9.670500755E-1
1.341767405E0,-3.000000119E-2,9.711000443E0,7.200000286E-1
1.344273942E0,-1.069500074E-1,9.330000877E0,6.649500132E-1
1.346781327E0,-1.140000075E-1,9.208050728E0,9.169500470E-1
1.349287790E0,-5.895000324E-2,9.397050858E0,1.489050031E0
1.351793636E0,5.505000427E-2,9.867000580E0,2.152050018E0
1.354300096E0,2.560500205E-1,1.028595066E1,2.506050110E0
1.356807495E0,3.640500307E-1,1.037400055E1,2.536950111E0
1.359314190E0,3.970500231E-1,9.958050728E0,2.332050085E0
1.361819805E0,3.570000231E-1,9.234000206E0,1.929000139E0
1.364326495E0,2.779500186E-1,8.743950844E0,1.399950027E0
1.366833885E0,2.629500031E-1,8.808000565E0,1.027050018E0
1.369340349E0,2.629500031E-1,9.409049988E0,1.098000050E0
1.371846195E0,2.299500108E-1,1.008900070E1,1.326000094E0
1.374352654E0,1.309500039E-1,1.048395061E1,1.390950084E0
1.376860043E0,1.950000064E-3,1.030005074E1,1.242000103E0
1.379366583E0,-6.405000389E-2,9.727950096E0,8.380500674E-1
1.381872353E0,-1.210500076E-1,9.253950119E0,5.500500202E-1
1.384378889E0,-1.210500076E-1,9.136050224E0,6.000000238E-1
1.386886298E0,-4.005000368E-2,9.421050072E0,1.048050046E0
1.389392761E0,5.700000376E-2,9.883050919E0,1.881000042E0
1.391898607E0,1.750500053E-1,1.015395069E1,2.467950106E0
1.394405067E0,2.730000019E-1,1.014705086E1,2.554050207E0
1.396912462E0,3.370500207E-1,9.804000854E0,2.323950052E0
1.399419156E0,3.660000265E-1,9.289950371E0,1.836000085E0
1.401924771E0,3.660000265E-1,8.899050713E0,1.399950027E0
1.404431462E0,3.229500055E-1,8.947050095E0,1.240050077E0
1.406938817E0,2.899500132E-1,9.406949997E0,1.279950023E0
1.409445358E0,2.680500150E-1,9.936000824E0,1.314000010E0
1.411951127E0,2.059500068E-1,1.030005074E1,1.258950114E0
1.414457586E0,7.200000435E-2,1.025400066E1,1.030950069E0
1.416964976E0,-8.805000782E-2,9.969000816E0,7.819500566E-1
1.419471517E0,-2.029500157E-1,9.582000732E0,7.150500417E-1
1.421977286E0,-2.310000062E-1,9.115050316E0,6.889500618E-1
1.424483822E0,-1.399500072E-1,8.973000526E0,9.330000281E-1
1.426991202E0,2.100000158E-2,9.507000923E0,1.728000045E0
1.429497896E0,2.899500132E-1,1.020705032E1,2.367000103E0
1.432003512E0,4.519500136E-1,1.042200089E1,2.626050234E0
1.434510202E0,4.930500090E-1,1.014195061E1,2.616000175E0
1.437017592E0,4.860000312E-1,9.502950668E0,2.118000031E0
1.439524055E0,4.260000288E-1,8.871000290E0,1.318950057E0
1.442029670E0,2.989500165E-1,8.887050629E0,1.042950034E0
1.444536361E0,2.130000144E-1,9.427950859E0,1.228050113E0
1.447043745E0,1.750500053E-1,1.011795044E1,1.326000094E0
1.449550286E0,1.050000042E-1,1.050600052E1,1.318950057E0
1.452056055E0,-2.595000155E-2,1.029495049E1,9.910500646E-1
1.454562592E0,-1.639500111E-1,9.735000610E0,5.500500202E-1
1.457069880E0,-2.359500080E-1,9.334950447E0,4.590000212E-1
1.459576421E0,-2.410500050E-1,9.256050110E0,6.100500226E-1
1.462082190E0,-1.620000005E-1,9.469050407E0,1.194000006E0
1.464588726E0,-2.295000106E-2,9.823050499E0,1.857000113E0
1.467096120E0,1.360500008E-1,1.009605026E1,2.322000027E0
1.469602814E0,2.580000162E-1,1.009395027E1,2.446050167E0
1.472108430E0,3.250500262E-1,9.799950600E0,2.238000154E0
1.474615120E0,3.420000076E-1,9.445050240E0,1.956000090E0
1.477122505E0,3.420000076E-1,9.160050392E0,1.585050106E0
1.479628968E0,2.610000074E-1,9.139050484E0,1.321050048E0
1.482134814E0,1.960500032E-1,9.369000435E0,1.285050035E0
1.484641274E0,1.819500029E-1,9.732000351E0,1.228050113E0
1.487148630E0,1.530000120E-1,1.003695011E1,1.077000022E0
1.489655093E0,8.400000632E-2,1.011105061E1,9.049500227E-1
1.492160939E0,1.695000008E-2,9.904950142E0,7.420500517E-1
1.494667399E0,-8.805000782E-2,9.625050545E0,7.129500508E-1
1.497174903E0,-9.300000221E-2,9.403950691E0,8.779500127E-1
1.499681367E0,-8.295000345E-2,9.316050529E0,1.146000028E0
1.502187213E0,-2.595000155E-2,9.473999977E0,1.611000061E0
1.504693673E0,1.339500099E-1,9.784950256E0,2.062950134E0
1.507201048E0,2.389500141E-1,1.010100079E1,2.383949995E0
1.509707743E0,2.629500031E-1,1.013700008E1,2.547000170E0
1.512213358E0,2.749500275E-1,9.807000160E0,2.262000084E0
1.514720048E0,2.250000089E-1,9.202950478E0,1.719000101E0
1.517227414E0,1.650000066E-1,8.916000366E0,1.330950022E0
1.519733877E0,1.410000026E-1,9.169950485E0,1.077000022E0
1.522239724E0,1.459500045E-1,9.664950371E0,1.075049996E0
1.524746183E0,1.099500060E-1,1.018305016E1,1.252050042E0
1.527253582E0,5.700000376E-2,1.036200047E1,1.264050007E0
1.529760122E0,-1.395000052E-2,1.009395027E1,9.960000515E-1
1.532265891E0,-1.050000042E-1,9.658050537E0,7.249500155E-1
1.534772428E0,-1.639500111E-1,9.346950531E0,7.270500064E-1
1.537279808E0,-1.519500017E-1,9.282000542E0,9.139500260E-1
1.539786502E0,-6.900000572E-2,9.502950668E0,1.426050067E0
1.542292117E0,2.595000155E-2,9.876000404E0,2.113950014E0
1.544798808E0,1.699500084E-1,1.003200054E1,2.442000151E0
1.547306173E0,2.320500165E-1,9.958050728E0,2.401050091E0
1.549812637E0,3.109500110E-1,9.670050621E0,2.133000135E0
1.552318483E0,3.420000076E-1,9.282000542E0,1.714050055E0
1.554824942E0,3.010500073E-1,9.091050148E0,1.381050110E0
1.557332336E0,2.580000162E-1,9.193950653E0,1.302000046E0
1.559838877E0,1.819500029E-1,9.547950745E0,1.314000010E0
1.562344646E0,1.579500139E-1,9.919050217E0,1.261050105E0
1.564851182E0,6.705000252E-2,1.000500011E1,1.004999995E0
1.567358490E0,-4.200000316E-2,9.931050301E0,7.390500307E-1
1.569865030E0,-1.519500017E-1,9.868950844E0,8.470500112E-1
1.572370800E0,-2.790000141E-1,9.667950630E0,1.132050037E0
1.574877336E0,-2.959500253E-1,9.164999962E0,1.041000009E0
1.577384706E0,-1.570500135E-1,9.043050766E0,1.324050069E0
1.579891169E0,-4.050000105E-3,9.514950752E0,1.989000082E0
1.582397015E0,2.659500241E-1,9.993000031E0,2.169000149E0
1.584903475E0,3.850500286E-1,1.028595066E1,2.539950132E0
1.587411104E0,3.490500152E-1,1.009200001E1,2.820000172E0
1.589917568E0,3.810000122E-1,9.426000595E0,2.137950182E0
1.592423414E0,2.800500095E-1,8.904000282E0,1.455000043E0
1.594929874E0,1.960500032E-1,8.772000313E0,9.720000625E-1
1.597437273E0,1.510500014E-1,9.220050812E0,8.490000367E-1
1.599943737E0,6.195000187E-2,1.004895020E1,1.242000103E0
1.602449583E0,3.299999982E-2,1.056600094E1,1.405050039E0
1.604956042E0,7.050000131E-3,1.035300064E1,1.156050086E0
1.607463523E0,-4.905000329E-2,9.807000160E0,9.169500470E-1
1.609969987E0,-4.200000316E-2,9.274950027E0,6.319500208E-1
1.612475756E0,-9.000000544E-3,9.142950058E0,6.390000582E-1
1.614982292E0,3.299999982E-2,9.406949997E0,1.245000005E0
1.617489677E0,9.600000083E-2,9.766050339E0,1.956000090E0
1.619996371E0,1.339500099E-1,1.000305080E1,2.406000137E0
1.622501987E0,1.429500133E-1,9.961950302E0,2.527950048E0
1.625008677E0,2.250000089E-1,9.706050873E0,2.346000195E0
1.627515817E0,2.820000052E-1,9.364050865E0,1.908000112E0
1.630022588E0,3.109500110E-1,9.261000633E0,1.654050112E0
1.632528126E0,3.090000153E-1,9.309000015E0,1.410000086E0
1.635034817E0,2.580000162E-1,9.498000145E0,1.252050042E0
1.637542201E0,2.370000184E-1,9.709050179E0,1.105949998E0
1.640048742E0,1.530000120E-1,9.883050919E0,9.139500260E-1
1.642554511E0,2.595000155E-2,9.976950645E0,8.089500666E-1
1.645061048E0,-7.095000148E-2,9.844950676E0,7.920000553E-1
1.647568436E0,-1.789500117E-1,9.651000023E0,9.049500227E-1
1.650075131E0,-2.100000083E-1,9.454950333E0,1.177050114E0
1.652580746E0,-1.279500127E-1,9.378000259E0,1.423950076E0
1.655087205E0,1.905000024E-2,9.582000732E0,1.825950146E0
1.657594561E0,1.339500099E-1,9.952950478E0,2.254950047E0
1.660101255E0,2.509500086E-1,1.011300087E1,2.449050188E0
1.662606871E0,2.659500241E-1,9.931050301E0,2.422950029E0
1.665113561E0,2.920500040E-1,9.391950607E0,2.047049999E0
1.667620975E0,2.779500186E-1,8.976000786E0,1.558050036E0
1.670127438E0,2.659500241E-1,9.043050766E0,1.300050020E0
1.672633284E0,2.730000019E-1,9.534000397E0,1.230000019E0
1.675139744E0,2.800500095E-1,1.011795044E1,1.336050034E0
1.677647124E0,2.200500071E-1,1.039605045E1,1.324050069E0
1.680153664E0,8.100000024E-2,1.018695068E1,1.036050081E0
1.682659433E0,-4.005000368E-2,9.709050179E0,7.680000067E-1
1.685165970E0,-1.050000042E-1,9.322950363E0,5.809500217E-1
1.687673354E0,-1.450500041E-1,9.241950035E0,6.790500283E-1
1.690179818E0,-5.895000324E-2,9.498000145E0,1.161000013E0
1.692685664E0,3.105000220E-2,9.864000320E0,1.807050109E0
1.695192124E0,1.630500108E-1,1.012995052E1,2.322000027E0
1.697699630E0,2.370000184E-1,1.004895020E1,2.494050026E0
1.700206094E0,2.730000019E-1,9.687000275E0,2.238000154E0
1.702711709E0,3.300000131E-1,9.268050194E0,1.798050046E0
1.705218399E0,3.160500228E-1,9.096000671E0,1.495950103E0
1.707725784E0,2.700000107E-1,9.253950119E0,1.381050110E0
1.710232324E0,2.419500053E-1,9.613050461E0,1.426050067E0
1.712738094E0,2.440500110E-1,9.910050392E0,1.465050101E0
1.715244553E0,1.909500062E-1,1.004100037E1,1.225050092E0
1.717751923E0,1.150500029E-1,9.949950218E0,8.610000610E-1
1.720258463E0,5.205000192E-2,9.748950005E0,6.289500594E-1
1.722764232E0,-1.395000052E-2,9.559950829E0,6.100500226E-1
1.725271000E0,-8.805000782E-2,9.445050240E0,8.569500446E-1
1.727778183E0,-6.405000389E-2,9.534000397E0,1.339950085E0
1.730284877E0,3.795000166E-2,9.742050171E0,1.798050046E0
1.732790492E0,2.110500038E-1,1.004400063E1,2.205000162E0
1.735297183E0,3.180000186E-1,1.018995094E1,2.383949995E0
1.737804561E0,3.760500252E-1,1.002000046E1,2.263950109E0
1.740311025E0,3.850500286E-1,9.664950371E0,1.980000138E0
1.742816871E0,3.540000021E-1,9.292050362E0,1.696950078E0
1.745323330E0,2.920500040E-1,9.124050140E0,1.429050088E0
1.747830706E0,2.820000052E-1,9.261000633E0,1.186950088E0
1.750337247E0,2.610000074E-1,9.756000519E0,1.222950101E0
1.752843016E0,2.370000184E-1,1.021395016E1,1.197000027E0
1.755349552E0,1.170000061E-1,1.028100014E1,1.015050054E0
1.757856909E0,-2.100000158E-2,1.000500011E1,8.809500337E-1
1.760363372E0,-1.519500017E-1,9.553050041E0,7.129500508E-1
1.762869219E0,-2.029500157E-1,9.246000290E0,7.440000176E-1
1.765375678E0,-1.909500062E-1,9.258000374E0,9.979500771E-1
1.767883048E0,-4.500000179E-2,9.615000725E0,1.506000042E0
1.770389742E0,1.240500063E-1,1.008705044E1,2.032050133E0
1.772895357E0,2.269500047E-1,1.030500031E1,2.370000124E0
1.775402048E0,2.899500132E-1,1.004595089E1,2.334000111E0
1.777909432E0,3.370500207E-1,9.406949997E0,1.885950089E0
1.780415896E0,3.490500152E-1,8.944950104E0,1.494000077E0
1.782921742E0,3.250500262E-1,8.964000702E0,1.240050077E0
1.785428202E0,3.210000098E-1,9.354000092E0,1.134000063E0
1.787935586E0,2.730000019E-1,9.888000488E0,1.357050061E0
1.790442127E0,2.029500157E-1,1.016100025E1,1.351950049E0
1.792947896E0,1.170000061E-1,1.006995010E1,1.102950096E0
1.795454432E0,1.200000010E-2,9.792000771E0,8.779500127E-1
1.797961817E0,-1.800000109E-2,9.475950241E0,6.240000129E-1
1.800468516E0,-6.105000153E-2,9.330000877E0,6.390000582E-1
1.802974132E0,-4.005000368E-2,9.430950165E0,1.027050018E0
1.805480591E0,7.050000131E-3,9.667950630E0,1.552950025E0
1.807987976E0,1.339500099E-1,9.979050636E0,2.122950077E0
1.810494661E0,2.130000144E-1,1.006995010E1,2.341050148E0
1.813000277E0,3.060000241E-1,9.886050224E0,2.296050072E0
1.815506967E0,3.450000286E-1,9.510000229E0,2.032050133E0
1.818014352E0,3.610500097E-1,9.130949974E0,1.615950108E0
1.820520892E0,3.130500019E-1,9.108000755E0,1.395000100E0
1.823026661E0,2.320500165E-1,9.402000427E0,1.411950111E0
1.825533198E0,1.939500123E-1,9.831000328E0,1.441050053E0
1.828040582E0,1.050000042E-1,1.011600018E1,1.390950084E0
1.830547036E0,1.200000010E-2,1.004595089E1,1.051050067E0
1.833052882E0,-9.300000221E-2,9.828000069E0,7.920000553E-1
1.835559212E0,-1.639500111E-1,9.558000565E0,6.240000129E-1
1.838065503E0,-1.549500078E-1,9.382950783E0,6.000000238E-1
1.840573424E0,-1.380000114E-1,9.388050079E0,9.259500504E-1
1.843079041E0,-3.495000303E-2,9.571950912E0,1.494000077E0
1.845585731E0,1.099500060E-1,9.832950592E0,2.026950121E0
1.848093116E0,2.320500165E-1,9.997950554E0,2.281050205E0
1.850599579E0,3.370500207E-1,9.892950058E0,2.281050205E0
1.853105426E0,3.850500286E-1,9.570000648E0,2.073000193E0
1.855611885E0,3.880500197E-1,9.208050728E0,1.747050047E0
1.858119270E0,3.210000098E-1,9.097949982E0,1.503000021E0
1.860625924E0,2.800500095E-1,9.294000626E0,1.438050032E0
1.863131693E0,2.560500205E-1,9.664950371E0,1.431000113E0
1.865638230E0,1.990500093E-1,9.907050133E0,1.285050035E0
1.868145614E0,9.300000221E-2,9.919050217E0,9.760500193E-1
1.870652088E0,0.000000000E0,9.766050339E0,7.270500064E-1
1.873157934E0,-1.140000075E-1,9.559950829E0,6.679500341E-1
1.875664394E0,-1.549500078E-1,9.439949989E0,7.870500088E-1
1.878171778E0,-1.380000114E-1,9.460050583E0,1.108050108E0
1.880678463E0,-3.299999982E-2,9.543000221E0,1.576950073E0
1.883184078E0,1.240500063E-1,9.751950264E0,2.004000187E0
1.885690768E0,2.509500086E-1,9.928950310E0,2.290950060E0
1.888198153E0,3.520500064E-1,9.948000908E0,2.332050085E0
1.890704688E0,3.570000231E-1,9.688950539E0,2.200050116E0
1.893210458E0,3.469500244E-1,9.268050194E0,1.903050065E0
1.895716994E0,2.490000129E-1,9.043050766E0,1.564950109E0
1.898224302E0,2.010000050E-1,9.199050903E0,1.435950041E0
1.900730877E0,1.429500133E-1,9.694050789E0,1.455000043E0
1.903236647E0,1.219500080E-1,1.008195019E1,1.393050075E0
1.905743183E0,5.505000427E-2,1.019205093E1,1.168050051E0
1.908250568E0,-6.105000153E-2,9.981000900E0,8.730000257E-1
1.910757266E0,-1.380000114E-1,9.619950294E0,6.169500351E-1
1.913262881E0,-1.909500062E-1,9.394950867E0,6.679500341E-1
1.915769572E0,-1.720500141E-1,9.345000267E0,9.049500227E-1
1.918276956E0,-7.095000148E-2,9.526950836E0,1.357050061E0
1.920783420E0,6.705000252E-2,9.879000664E0,1.984050035E0
1.923289300E0,2.179500163E-1,1.006005001E1,2.314950228E0
1.925795760E0,3.180000186E-1,9.985950470E0,2.398950100E0
1.928303144E0,3.589500189E-1,9.691950798E0,2.284050226E0
1.930809685E0,3.540000021E-1,9.316050529E0,1.929000139E0
1.933315454E0,3.400500119E-1,9.100049973E0,1.570050120E0
1.935821990E0,2.539499998E-1,9.184050560E0,1.339950085E0
1.938329375E0,1.770000011E-1,9.522000313E0,1.330950022E0
1.940835839E0,1.339500099E-1,9.892950058E0,1.324050069E0
1.943341704E0,7.200000435E-2,1.015095043E1,1.146000028E0
1.945848163E0,-4.005000368E-2,1.006995010E1,9.019500613E-1
1.948355548E0,-1.240500063E-1,9.768000603E0,7.009500265E-1
1.950862242E0,-1.930500120E-1,9.436050415E0,6.529500484E-1
1.953367844E0,-2.149500102E-1,9.282000542E0,8.590500355E-1
1.955874534E0,-1.570500135E-1,9.333000183E0,1.300050020E0
1.958381918E0,-4.050000105E-3,9.663000107E0,1.915050149E0
1.960888382E0,1.390500069E-1,9.988950729E0,2.365050077E0
1.963394209E0,2.490000129E-1,1.014195061E1,2.545050144E0
1.965900669E0,2.869500220E-1,9.949950218E0,2.473050117E0
1.968408053E0,2.939999998E-1,9.510000229E0,2.122950077E0
1.970914594E0,2.340000123E-1,9.096000671E0,1.692000031E0
1.973420363E0,1.939500123E-1,9.073950768E0,1.393050075E0
1.975926900E0,1.600500047E-1,9.490950584E0,1.321050048E0
1.978434207E0,1.510500014E-1,9.973950386E0,1.285050035E0
1.980940978E0,9.600000083E-2,1.026195049E1,1.149000049E0
1.983446512E0,2.895000204E-2,1.023795033E1,9.960000515E-1
1.985953279E0,-6.599999964E-2,9.936000824E0,7.609500289E-1
1.988460664E0,-1.399500072E-1,9.658050537E0,6.750000119E-1
1.990967127E0,-1.720500141E-1,9.376049995E0,7.440000176E-1
1.993472982E0,-1.260000020E-1,9.256050110E0,1.041000009E0
1.995979442E0,-9.000000544E-3,9.517050743E0,1.647000074E0
1.998486827E0,1.390500069E-1,9.919050217E0,2.188050032E0
2.000993367E0,2.850000262E-1,1.016295052E1,2.503950119E0
2.003499141E0,3.210000098E-1,1.004400063E1,2.515950203E0
2.006005601E0,3.520500064E-1,9.595950127E0,2.134950161E0
2.008513062E0,2.920500040E-1,9.108000755E0,1.651950121E0
2.011019526E0,1.870500147E-1,8.968950272E0,1.326000094E0
2.013525367E0,8.805000782E-2,9.261000633E0,1.233000040E0
2.016031827E0,4.995000362E-2,9.763950348E0,1.273050070E0
2.018539211E0,2.400000021E-2,1.013700008E1,1.125000000E0
2.021045906E0,-2.805000171E-2,1.024200058E1,9.280500412E-1
2.023551540E0,-1.210500076E-1,9.996000290E0,7.440000176E-1
2.026058230E0,-1.720500141E-1,9.579000473E0,6.409500241E-1
2.028565615E0,-1.840500087E-1,9.289950371E0,7.939500213E-1
2.031072078E0,-9.495000541E-2,9.286950111E0,1.120050073E0
2.033577925E0,1.000500023E-1,9.594000816E0,1.636950135E0
2.036084384E0,2.610000074E-1,1.000305080E1,2.213999987E0
2.038591769E0,3.570000231E-1,1.020195007E1,2.569050074E0
2.041098232E0,3.850500286E-1,1.007700062E1,2.578050137E0
2.043604089E0,3.610500097E-1,9.664950371E0,2.254950047E0
2.046110548E0,3.180000186E-1,9.229950905E0,1.780950069E0
2.048617933E0,2.389500141E-1,9.057000160E0,1.345050097E0
2.051124473E0,1.549500078E-1,9.328050613E0,1.206000090E0
2.053630247E0,1.390500069E-1,9.814050674E0,1.266000032E0
2.056137015E0,1.510500014E-1,1.022295094E1,1.213050008E0
2.058644168E0,6.000000238E-2,1.028295040E1,9.720000625E-1
2.061150863E0,-2.805000171E-2,9.993000031E0,7.350000143E-1
2.063656463E0,-1.170000061E-1,9.565050125E0,5.719500184E-1
2.066163153E0,-1.309500039E-1,9.297000885E0,6.700500250E-1
2.068670538E0,-1.090500057E-1,9.297000885E0,1.057950020E0
2.071177079E0,-1.605000161E-2,9.546000481E0,1.587000132E0
2.073682853E0,1.150500029E-1,9.852000237E0,2.173950195E0
2.076189389E0,1.960500032E-1,1.006305027E1,2.497050047E0
2.078696697E0,2.800500095E-1,9.964950562E0,2.478000164E0
2.081203237E0,2.970000207E-1,9.582000732E0,2.180999994E0
2.083709007E0,3.010500073E-1,9.184050560E0,1.759050131E0
2.086215543E0,2.419500053E-1,9.067049980E0,1.431000113E0
2.088722928E0,2.010000050E-1,9.241950035E0,1.213050008E0
2.091229391E0,1.939500123E-1,9.625050545E0,1.156050086E0
2.093735247E0,1.669500023E-1,9.958050728E0,1.105949998E0
2.096241707E0,1.510500014E-1,1.009200001E1,9.210000634E-1
2.098749322E0,6.705000252E-2,1.001505089E1,8.110500574E-1
2.101255786E0,-9.000000544E-3,9.727950096E0,7.440000176E-1
2.103761622E0,-5.205000192E-2,9.430950165E0,7.800000310E-1
2.106268082E0,-3.795000166E-2,9.301050186E0,1.084050059E0
2.108775466E0,1.905000024E-2,9.376049995E0,1.527000070E0
2.111281930E0,1.459500045E-1,9.727950096E0,2.025000095E0
2.113787795E0,2.460000068E-1,1.008195019E1,2.415000200E0
2.116294255E0,2.970000207E-1,1.011300087E1,2.511000156E0
2.118801716E0,2.989500165E-1,9.736950874E0,2.262000084E0
2.121308180E0,2.659500241E-1,9.201000214E0,1.831050038E0
2.123814074E0,2.340000123E-1,8.952000618E0,1.459950089E0
2.126320533E0,1.840500087E-1,9.160050392E0,1.225050092E0
2.128827918E0,2.110500038E-1,9.760950089E0,1.230000019E0
2.131334612E0,2.010000050E-1,1.019205093E1,1.258950114E0
2.133840243E0,1.410000026E-1,1.030500031E1,1.030950069E0
2.136346933E0,2.595000155E-2,1.004100037E1,8.209500313E-1
2.138854087E0,-8.505000174E-2,9.610050201E0,6.630000472E-1
2.141360858E0,-1.360500008E-1,9.297000885E0,6.679500341E-1
2.143866411E0,-1.090500057E-1,9.265950203E0,8.970000148E-1
2.146373178E0,4.950000439E-3,9.502950668E0,1.402950048E0
2.148880485E0,1.650000066E-1,9.904950142E0,2.041949987E0
2.151387026E0,2.700000107E-1,1.013505077E1,2.443950176E0
2.153892809E0,3.250500262E-1,1.000305080E1,2.514000177E0
2.156399346E0,3.450000286E-1,9.577050209E0,2.236050129E0
2.158906730E0,3.450000286E-1,9.154950142E0,1.786050081E0
2.161413194E0,3.060000241E-1,8.976000786E0,1.417050123E0
2.163919050E0,2.539499998E-1,9.199050903E0,1.245000005E0
2.166425510E0,2.299500108E-1,9.627000809E0,1.300050020E0
2.168932894E0,1.890000105E-1,9.988950729E0,1.273050070E0
2.171439588E0,1.390500069E-1,1.009605026E1,1.051050067E0
2.173945189E0,9.795000404E-2,9.910050392E0,7.729500532E-1
2.176451879E0,3.105000220E-2,9.625050545E0,6.030000448E-1
2.178959264E0,-4.050000105E-3,9.391950607E0,6.559500098E-1
2.181465727E0,4.950000439E-3,9.313050270E0,9.450000525E-1
2.183971569E0,8.595000207E-2,9.498000145E0,1.458000064E0
2.186478029E0,1.840500087E-1,9.832950592E0,2.038950205E0
2.188985414E0,2.700000107E-1,1.009605026E1,2.389050007E0
2.191491954E0,3.210000098E-1,1.007505035E1,2.449050188E0
2.193997732E0,3.040500283E-1,9.700950623E0,2.245050192E0
2.196504269E0,2.800500095E-1,9.226950645E0,1.831050038E0
2.199011653E0,2.490000129E-1,9.055050850E0,1.506000042E0
2.201518348E0,1.909500062E-1,9.262950897E0,1.330950022E0
2.204023978E0,1.789500117E-1,9.682050705E0,1.291950107E0
2.206530668E0,1.890000105E-1,1.006800079E1,1.282950044E0
2.209037822E0,1.390500069E-1,1.015095043E1,1.087050080E0
2.211544517E0,-1.950000064E-3,9.913950920E0,8.089500666E-1
2.214050132E0,-9.300000221E-2,9.634050369E0,6.700500250E-1
2.216556822E0,-9.705000371E-2,9.475950241E0,7.440000176E-1
2.219064207E0,-8.505000174E-2,9.522000313E0,1.018950105E0
2.221570747E0,2.400000021E-2,9.646050453E0,1.447950125E0
2.224076501E0,1.510500014E-1,9.838050842E0,1.924950123E0
2.226583037E0,2.629500031E-1,9.913950920E0,2.200050116E0
2.229090422E0,3.469500244E-1,9.886050224E0,2.278950214E0
2.231596885E0,3.970500231E-1,9.675000191E0,2.104050159E0
2.234102722E0,3.919500113E-1,9.397050858E0,1.792950034E0
2.236609182E0,3.210000098E-1,9.187050819E0,1.474050045E0
2.239116567E0,2.560500205E-1,9.246000290E0,1.326000094E0
2.241623261E0,1.909500062E-1,9.529050827E0,1.306950092E0
2.244128871E0,1.650000066E-1,9.820950508E0,1.261050105E0
2.246635562E0,1.549500078E-1,9.997950554E0,1.054949999E0
2.249142946E0,9.105000645E-2,9.996000290E0,8.520000577E-1
2.251649487E0,1.395000052E-2,9.772950172E0,7.369500399E-1
2.254155275E0,-5.400000140E-2,9.493050575E0,7.560000420E-1
2.256661734E0,-9.000000358E-2,9.309000015E0,9.960000515E-1
2.259169119E0,-4.005000368E-2,9.361050606E0,1.381050110E0
2.261675660E0,7.905000448E-2,9.682050705E0,1.884000063E0
2.264181434E0,2.130000144E-1,1.003200054E1,2.188050032E0
2.266687970E0,2.820000052E-1,1.013505077E1,2.365050077E0
2.269195355E0,2.800500095E-1,9.868950844E0,2.308050156E0
2.271702049E0,2.460000068E-1,9.376049995E0,1.975050092E0
2.274207650E0,2.269500047E-1,9.037950516E0,1.567950130E0
2.276714340E0,2.269500047E-1,9.141000748E0,1.314000010E0
2.279221494E0,2.389500141E-1,9.606000900E0,1.267950058E0
2.281728188E0,2.389500141E-1,1.004100037E1,1.264050007E0
2.284233789E0,1.429500133E-1,1.023000050E1,1.146000028E0
2.286740480E0,1.395000052E-2,1.005105019E1,9.259500504E-1
2.289247864E0,-9.000000358E-2,9.709050179E0,7.270500064E-1
2.291754405E0,-1.480500102E-1,9.457050323E0,6.580500603E-1
2.294260160E0,-1.330500096E-1,9.378000259E0,8.299500346E-1
2.296766697E0,-6.599999964E-2,9.550050735E0,1.258950114E0
2.299274081E0,6.705000252E-2,9.855000496E0,1.845000029E0
2.301780545E0,2.269500047E-1,1.007505035E1,2.250000000E0
2.304286391E0,2.939999998E-1,1.008405018E1,2.358000040E0
2.306792850E0,3.420000076E-1,9.778050423E0,2.194950104E0
2.309300235E0,3.180000186E-1,9.318000793E0,1.783050060E0
2.311806929E0,2.779500186E-1,9.028950691E0,1.447950125E0
2.314312506E0,1.960500032E-1,9.124050140E0,1.306950092E0
2.316819196E0,1.720500141E-1,9.514950752E0,1.350000024E0
2.319326581E0,1.510500014E-1,9.943050385E0,1.354950070E0
2.321833044E0,1.219500080E-1,1.014195061E1,1.177050114E0
2.324338880E0,3.795000166E-2,1.001700020E1,8.520000577E-1
2.326845340E0,-6.900000572E-2,9.694050789E0,6.769500375E-1
2.329352725E0,-1.069500074E-1,9.400050163E0,7.129500508E-1
2.331859265E0,-1.429500133E-1,9.322950363E0,9.520500302E-1
2.334365039E0,-7.095000148E-2,9.463950157E0,1.330950022E0
2.336871576E0,5.205000192E-2,9.747000694E0,1.800000072E0
2.339378960E0,1.579500139E-1,1.002705002E1,2.178000212E0
2.341885655E0,2.269500047E-1,1.006005001E1,2.386950016E0
2.344391251E0,2.370000184E-1,9.828000069E0,2.317050219E0
2.346897941E0,2.580000162E-1,9.448050499E0,2.029950142E0
2.349405095E0,2.749500275E-1,9.160050392E0,1.635000110E0
2.351911790E0,2.629500031E-1,9.202950478E0,1.336050034E0
2.354417386E0,2.389500141E-1,9.507000923E0,1.222950101E0
2.356924076E0,2.130000144E-1,9.895050049E0,1.209000111E0
2.359431461E0,1.650000066E-1,1.012500095E1,1.185000062E0
2.361938001E0,6.000000238E-2,1.008405018E1,9.550500512E-1
2.364443771E0,-5.895000324E-2,9.831000328E0,8.040000200E-1
2.366950302E0,-1.450500041E-1,9.562050819E0,7.150500417E-1
2.369457687E0,-1.669500023E-1,9.414000511E0,8.520000577E-1
2.371964150E0,-1.620000005E-1,9.406949997E0,1.204050064E0
2.374469977E0,-6.105000153E-2,9.625050545E0,1.687050104E0
2.376976437E0,8.595000207E-2,9.907050133E0,2.190000057E0
2.379483822E0,1.909500062E-1,1.002900028E1,2.358000040E0
2.381990516E0,2.460000068E-1,9.867000580E0,2.286000013E0
2.384496126E0,2.939999998E-1,9.445050240E0,1.980000138E0
2.387002817E0,2.539499998E-1,9.091050148E0,1.618050098E0
2.389510201E0,2.440500110E-1,9.100049973E0,1.374000072E0
2.392016665E0,1.909500062E-1,9.378000259E0,1.321050048E0
2.394522521E0,1.990500093E-1,9.814050674E0,1.359000087E0
2.397028980E0,1.549500078E-1,1.005105019E1,1.303950071E0
2.399536365E0,8.100000024E-2,1.000800037E1,1.057950020E0
2.402042906E0,-2.295000106E-2,9.724950790E0,8.230500221E-1
2.404548660E0,-8.505000174E-2,9.418950081E0,7.660500407E-1
2.407055196E0,-1.170000061E-1,9.285000801E0,9.310500622E-1
2.409562581E0,-1.069500074E-1,9.316050529E0,1.273050070E0
2.412069275E0,-2.595000155E-2,9.591000557E0,1.765950084E0
2.414574867E0,1.030500084E-1,9.922050476E0,2.233050108E0
2.417081557E0,2.130000144E-1,1.012305069E1,2.491950035E0
2.419588941E0,2.659500241E-1,1.000095081E1,2.415000200E0
2.422095405E0,2.869500220E-1,9.586050034E0,2.085000038E0
2.424601025E0,2.749500275E-1,9.160050392E0,1.656000137E0
2.427107716E0,2.440500110E-1,9.085950851E0,1.386000037E0
2.429615100E0,2.269500047E-1,9.406949997E0,1.318950057E0
2.432121641E0,2.440500110E-1,9.895050049E0,1.369050026E0
2.434627419E0,1.990500093E-1,1.018005085E1,1.318950057E0
2.437133956E0,1.240500063E-1,1.007700062E1,1.149000049E0
2.439641340E0,1.695000008E-2,9.711000443E0,9.139500260E-1
2.442147804E0,-6.599999964E-2,9.402000427E0,8.089500666E-1
2.444653650E0,-1.210500076E-1,9.325050354E0,9.240000248E-1
2.447160104E0,-8.505000174E-2,9.403950691E0,1.218000054E0
2.449667489E0,-1.395000052E-2,9.603000641E0,1.695000052E0
2.452174183E0,7.395000011E-2,9.868950844E0,2.200050116E0
2.454679799E0,1.819500029E-1,1.001700020E1,2.374950171E0
2.457186504E0,2.149500102E-1,9.895050049E0,2.383949995E0
2.459693889E0,2.389500141E-1,9.565050125E0,2.050950050E0
2.462200352E0,3.090000153E-1,9.214950562E0,1.627950072E0
2.464706198E0,2.820000052E-1,9.096000671E0,1.351950049E0
2.467212663E0,2.509500086E-1,9.268050194E0,1.279950023E0
2.469720048E0,2.299500108E-1,9.571950912E0,1.261050105E0
2.472226588E0,2.419500053E-1,9.847050667E0,1.297050118E0
2.474732357E0,1.990500093E-1,9.996000290E0,1.264050007E0
2.477238927E0,1.290000081E-1,9.883050919E0,1.114950061E0
2.479746311E0,1.080000028E-1,9.603000641E0,1.039050102E0
2.482253006E0,5.505000427E-2,9.430950165E0,1.150950074E0
2.484758621E0,3.299999982E-2,9.397050858E0,1.399950027E0
2.487265306E0,4.800000042E-2,9.457050323E0,1.573050022E0
2.489772460E0,1.120500043E-1,9.709050179E0,1.879050136E0
2.492279155E0,1.530000120E-1,9.988950729E0,2.238000154E0
2.494784770E0,1.720500141E-1,1.004100037E1,2.275950193E0
2.497291470E0,1.530000120E-1,9.874050140E0,2.154000044E0
2.499798855E0,1.789500117E-1,9.553050041E0,1.798050046E0
2.502305395E0,2.490000129E-1,9.309000015E0,1.393050075E0
2.504811165E0,2.800500095E-1,9.328050613E0,1.156050086E0
2.507317629E0,3.349500299E-1,9.637050629E0,1.216050029E0
2.509825091E0,3.589500189E-1,9.940950394E0,1.426050067E0
2.512331554E0,2.989500165E-1,1.006305027E1,1.479000092E0
2.514837400E0,2.440500110E-1,9.844950676E0,1.294950008E0
2.517343869E0,1.510500014E-1,9.514950752E0,1.060050011E0
2.519851254E0,3.600000218E-2,9.277950287E0,1.078950047E0
2.522357717E0,-8.295000345E-2,9.253950119E0,1.378950119E0
2.524863563E0,-1.279500127E-1,9.471000671E0,1.810050130E0
2.527370023E0,-1.000500023E-1,9.792000771E0,2.229000092E0
2.529877638E0,1.200000010E-2,1.003395081E1,2.326950073E0
2.532384102E0,1.150500029E-1,1.004595089E1,2.133000135E0
2.534889948E0,2.010000050E-1,9.787950516E0,1.849950075E0
2.537396422E0,2.820000052E-1,9.451950073E0,1.573050022E0
2.539903807E0,3.300000131E-1,9.292050362E0,1.336050034E0
2.542410347E0,4.120500088E-1,9.445050240E0,1.125000000E0
2.544916117E0,4.740000367E-1,9.772950172E0,1.132050037E0
2.547422658E0,5.070000291E-1,1.003905010E1,1.233000040E0
2.549930043E0,4.210500121E-1,1.008000088E1,1.279950023E0
2.552436737E0,2.220000178E-1,9.771000862E0,1.285050035E0
2.554942353E0,9.795000404E-2,9.427950859E0,1.213050008E0
2.557449043E0,0.000000000E0,9.178950310E0,1.218000054E0
2.559956197E0,-3.795000166E-2,9.199050903E0,1.402950048E0
2.562462891E0,-8.100000024E-2,9.463950157E0,1.789950132E0
2.564968506E0,-8.100000024E-2,9.804000854E0,2.298000097E0
2.567475216E0,-5.400000140E-2,9.922050476E0,2.547000170E0
2.569982600E0,1.395000052E-2,9.946050644E0,2.383949995E0
2.572489064E0,1.050000042E-1,9.816000938E0,1.963050127E0
2.574994910E0,2.010000050E-1,9.610050201E0,1.470000029E0
2.577501341E0,2.659500241E-1,9.436050415E0,1.156050086E0
2.580008802E0,2.939999998E-1,9.471000671E0,1.060050011E0
2.582515266E0,3.300000131E-1,9.718050003E0,1.177050114E0
2.585021112E0,3.780000210E-1,1.004895020E1,1.312050104E0
2.587527571E0,3.919500113E-1,1.019205093E1,1.245000005E0
2.590034956E0,2.920500040E-1,1.001700020E1,1.174950004E0
2.592541650E0,1.630500108E-1,9.652950287E0,1.165950060E0
2.595047266E0,4.950000439E-3,9.265950203E0,1.276050091E0
2.597553956E0,-1.240500063E-1,9.181950569E0,1.501050115E0
2.600061100E0,-1.309500039E-1,9.345000267E0,1.884000063E0
2.602567871E0,-6.405000389E-2,9.748950005E0,2.298000097E0
2.605073410E0,3.795000166E-2,1.002900028E1,2.431950092E0
2.607580100E0,1.120500043E-1,1.004400063E1,2.286000013E0
2.610087489E0,1.429500133E-1,9.804000854E0,1.965000153E0
2.612594030E0,2.299500108E-1,9.454950333E0,1.579950094E0
2.615099799E0,2.989500165E-1,9.309000015E0,1.258950114E0
2.617606336E0,3.469500244E-1,9.394950867E0,1.077000022E0
2.620113711E0,4.000500143E-1,9.664950371E0,1.030950069E0
2.622620175E0,4.570500255E-1,9.979050636E0,1.180050015E0
2.625126021E0,4.380000234E-1,1.013895035E1,1.273050070E0
2.627632481E0,3.130500019E-1,1.000995064E1,1.225050092E0
2.630140096E0,1.579500139E-1,9.637050629E0,1.165950060E0
2.632646559E0,-4.050000105E-3,9.280050278E0,1.206000090E0
2.635152175E0,-1.090500057E-1,9.073950768E0,1.381050110E0
2.637658865E0,-1.759500057E-1,9.157950401E0,1.704000115E0
2.640166240E0,-1.500000060E-1,9.471000671E0,2.134950161E0
2.642672703E0,-6.105000153E-2,9.864000320E0,2.487000227E0
2.645178549E0,4.995000362E-2,1.012005043E1,2.487000227E0
2.647685009E0,1.549500078E-1,1.006305027E1,2.209050179E0
2.650192394E0,1.939500123E-1,9.760950089E0,1.755000114E0
2.652699165E0,2.200500071E-1,9.426000595E0,1.288050056E0
2.655204703E0,2.920500040E-1,9.289950371E0,9.400500655E-1
2.657711240E0,3.640500307E-1,9.574050903E0,8.520000577E-1
2.660218609E0,4.279500246E-1,1.003905010E1,9.280500412E-1
2.662725304E0,4.429500103E-1,1.030200005E1,1.081950068E0
2.665230919E0,3.349500299E-1,1.020705032E1,1.180050015E0
2.667737609E0,1.870500147E-1,9.736950874E0,1.198950052E0
2.670245004E0,2.595000155E-2,9.222000122E0,1.182000041E0
2.672751468E0,-6.105000153E-2,8.959050179E0,1.321050048E0
2.675257314E0,-6.900000572E-2,9.115050316E0,1.695000052E0
2.677763773E0,-8.505000174E-2,9.579000473E0,2.169000149E0
2.680271124E0,-2.805000171E-2,9.985950470E0,2.548950195E0
2.682777664E0,0.000000000E0,1.011795044E1,2.566050053E0
2.685283434E0,-1.605000161E-2,9.907050133E0,2.209050179E0
2.687789970E0,6.000000238E-2,9.538950920E0,1.564950109E0
2.690297360E0,1.339500099E-1,9.249000549E0,8.950500488E-1
2.692803823E0,1.819500029E-1,9.262950897E0,5.530500412E-1
2.695309669E0,2.580000162E-1,9.523950577E0,5.790000558E-1
2.697816129E0,3.469500244E-1,9.976950645E0,8.590500355E-1
2.700323514E0,3.919500113E-1,1.027605057E1,1.105949998E0
2.702830208E0,3.829500079E-1,1.021095085E1,1.129950047E0
2.705335823E0,2.820000052E-1,9.782999992E0,1.041000009E0
2.707842514E0,1.429500133E-1,9.244050026E0,1.015050054E0
2.710349874E0,7.050000131E-3,8.995050430E0,1.221000075E0
2.712856415E0,-1.360500008E-1,9.148050308E0,1.672950029E0
2.715362184E0,-1.840500087E-1,9.582000732E0,2.202000141E0
2.717868720E0,-1.840500087E-1,9.979050636E0,2.514000177E0
2.720376090E0,-1.330500096E-1,1.010595036E1,2.415000200E0
2.722882554E0,-6.105000153E-2,9.997950554E0,1.984050035E0
2.725388400E0,-1.605000161E-2,9.732000351E0,1.443000078E0
2.727894859E0,7.200000435E-2,9.538950920E0,1.000050068E0
2.730402230E0,1.650000066E-1,9.522000313E0,6.720000505E-1
2.732908924E0,2.700000107E-1,9.720000267E0,6.100500226E-1
2.735414540E0,3.850500286E-1,9.981000900E0,7.750500441E-1
2.737921230E0,4.570500255E-1,1.015605068E1,9.550500512E-1
2.740428629E0,4.399500191E-1,1.003905010E1,1.066950083E0
2.742935092E0,3.690000176E-1,9.709050179E0,1.185000062E0
2.745440938E0,2.659500241E-1,9.292050362E0,1.300050020E0
2.747947398E0,1.099500060E-1,9.016950607E0,1.482000113E0
2.750454782E0,-4.200000316E-2,9.052050591E0,1.764000058E0
2.752961323E0,-2.100000083E-1,9.286950111E0,2.133000135E0
2.755467092E0,-3.079500198E-1,9.649050713E0,2.406000137E0
2.757973629E0,-3.490500152E-1,9.864000320E0,2.370000124E0
2.760480989E0,-3.340500295E-1,9.916950226E0,1.951050043E0
2.762987684E0,-2.530499995E-1,9.844950676E0,1.381050110E0
2.765493299E0,-1.140000075E-1,9.723000526E0,8.059500456E-1
2.767999758E0,3.600000218E-2,9.640950203E0,4.380000234E-1
2.770507365E0,1.789500117E-1,9.775950432E0,2.939999998E-1
2.773013828E0,3.660000265E-1,1.001295090E1,4.020000100E-1
2.775519444E0,4.879500270E-1,1.022100067E1,6.150000095E-1
2.778026134E0,5.410500169E-1,1.018005085E1,7.900500298E-1
2.780533528E0,5.100000501E-1,9.847050667E0,9.690000415E-1
2.783040068E0,3.730500042E-1,9.361050606E0,1.213050008E0
2.785545837E0,2.419500053E-1,9.045000076E0,1.513050079E0
2.788052374E0,7.905000448E-2,9.016950607E0,1.885950089E0
2.790559725E0,-2.595000155E-2,9.262950897E0,2.266950130E0
2.793066188E0,-1.330500096E-1,9.598050117E0,2.584950209E0
2.795572034E0,-2.149500102E-1,9.855000496E0,2.643000126E0
2.798078494E0,-2.479500175E-1,9.855000496E0,2.260050058E0
2.800585878E0,-2.310000062E-1,9.739950180E0,1.668000102E0
2.803092573E0,-1.429500133E-1,9.663000107E0,9.910500646E-1
2.805598188E0,-1.800000109E-2,9.739950180E0,4.300500154E-1
2.808104878E0,1.120500043E-1,9.948000908E0,1.740000099E-1
2.810612292E0,2.250000089E-1,1.017795086E1,2.130000144E-1
2.813118756E0,3.300000131E-1,1.033605003E1,4.330500066E-1
2.815624602E0,4.120500088E-1,1.029795074E1,5.910000205E-1
2.818131138E0,4.260000288E-1,1.000800037E1,7.390500307E-1
2.820638470E0,3.880500197E-1,9.583950043E0,8.970000148E-1
2.823145010E0,2.939999998E-1,9.193950653E0,1.165950060E0
2.825650780E0,1.549500078E-1,9.093000412E0,1.594050050E0
2.828157316E0,-2.595000155E-2,9.190950394E0,2.025000095E0
2.830664687E0,-1.789500117E-1,9.397050858E0,2.413050175E0
2.833171381E0,-2.650500238E-1,9.547950745E0,2.596950054E0
2.835677514E0,-3.079500198E-1,9.550050735E0,2.391000032E0
2.838183807E0,-2.890500128E-1,9.534000397E0,1.905000091E0
2.840691085E0,-1.720500141E-1,9.570000648E0,1.357050061E0
2.843197549E0,-3.495000303E-2,9.756000519E0,8.299500346E-1
2.845703395E0,1.170000061E-1,1.000305080E1,4.540500343E-1
2.848209855E0,2.419500053E-1,1.020900059E1,2.599500120E-1
2.850717220E0,2.939999998E-1,1.024500084E1,2.389500141E-1
2.853223761E0,3.420000076E-1,1.013700008E1,2.989500165E-1
2.855729530E0,3.540000021E-1,9.886050224E0,3.870000243E-1
2.858236066E0,3.490500152E-1,9.664950371E0,5.530500412E-1
2.860743441E0,3.330000043E-1,9.481050491E0,8.449500203E-1
2.863249905E0,2.629500031E-1,9.406949997E0,1.302000046E0
2.865755751E0,1.099500060E-1,9.385050774E0,1.768950105E0
2.868262210E0,-3.795000166E-2,9.333000183E0,2.125950098E0
2.870769615E0,-1.960500032E-1,9.238950729E0,2.367000103E0
2.873276309E0,-2.479500175E-1,9.238950729E0,2.463000059E0
2.875781925E0,-2.100000083E-1,9.448050499E0,2.262000084E0
2.878288615E0,-8.100000024E-2,9.663000107E0,1.819050074E0
2.880796019E0,-1.950000064E-3,9.910050392E0,1.494000077E0
2.883302559E0,5.700000376E-2,1.008000088E1,1.158000112E0
2.885808328E0,1.549500078E-1,1.011600018E1,7.200000286E-1
2.888314865E0,2.179500163E-1,1.012005043E1,3.439500034E-1
2.890822249E0,2.659500241E-1,1.007700062E1,1.189500093E-1
2.893328713E0,2.899500132E-1,1.001295090E1,2.080500126E-1
2.895834559E0,3.160500228E-1,9.913950920E0,4.740000367E-1
2.898341019E0,2.850000262E-1,9.778050423E0,8.209500313E-1
2.900848408E0,2.850000262E-1,9.606000900E0,1.186950088E0
2.903355102E0,2.130000144E-1,9.481050491E0,1.570050120E0
2.905860718E0,9.105000645E-2,9.388050079E0,1.873950124E0
2.908367408E0,-2.295000106E-2,9.310950279E0,2.140050173E0
2.910874769E0,-1.069500074E-1,9.306000710E0,2.335950136E0
2.913381232E0,-4.905000329E-2,9.321000099E0,2.257050037E0
2.915887079E0,3.299999982E-2,9.427950859E0,2.025000095E0
2.918393538E0,1.200000010E-2,9.583950043E0,1.843050122E0
2.920900923E0,-9.000000544E-3,9.844950676E0,1.467000127E0
2.923407487E0,2.100000158E-2,1.008405018E1,9.000000358E-1
2.925913256E0,-1.950000064E-3,1.027605057E1,2.839500010E-1
2.928419793E0,-1.950000064E-3,1.022595024E1,-1.339500099E-1
2.930927177E0,-3.299999982E-2,1.003695011E1,-1.740000099E-1
2.933433862E0,-3.000000119E-2,9.844950676E0,1.000500023E-1
2.935939477E0,4.500000179E-2,9.709050179E0,4.159500301E-1
2.938446168E0,1.939500123E-1,9.652950287E0,7.150500417E-1
2.940953552E0,3.229500055E-1,9.577050209E0,1.021950006E0
2.943460021E0,3.090000153E-1,9.481050491E0,1.438050032E0
2.945965867E0,2.220000178E-1,9.349050522E0,1.941000104E0
2.948472326E0,1.530000120E-1,9.220050812E0,2.278950214E0
2.950979711E0,5.205000192E-2,9.163050652E0,2.473050117E0
2.953486251E0,-1.395000052E-2,9.184050560E0,2.502000093E0
2.955992040E0,-1.800000109E-2,9.318000793E0,2.193000078E0
2.958498576E0,-4.500000179E-2,9.538950920E0,1.764000058E0
2.961005961E0,-7.095000148E-2,9.819000244E0,1.366950035E0
2.963512424E0,-3.000000119E-2,1.012305069E1,8.850000501E-1
2.966018265E0,4.950000439E-3,1.034295082E1,4.020000100E-1
2.968524725E0,-1.395000052E-2,1.034100056E1,2.805000171E-2
2.971032110E0,-4.005000368E-2,1.017300034E1,-1.605000161E-2
2.973538804E0,-2.805000171E-2,9.928950310E0,8.100000024E-2
2.976044410E0,9.105000645E-2,9.826050758E0,2.839500010E-1
2.978551101E0,2.179500163E-1,9.790050507E0,5.569500327E-1
2.981058485E0,3.280500174E-1,9.699000359E0,8.950500488E-1
2.983565026E0,3.109500110E-1,9.598050117E0,1.395000100E0
2.986070775E0,2.269500047E-1,9.409049988E0,1.855050087E0
2.988577311E0,1.309500039E-1,9.249000549E0,2.106000185E0
2.991084696E0,1.905000024E-2,9.222000122E0,2.269050121E0
2.993591160E0,-9.300000221E-2,9.246000290E0,2.362950087E0
2.996097021E0,-1.380000114E-1,9.364050865E0,2.205000162E0
2.998603480E0,-1.050000042E-1,9.526950836E0,1.828950047E0
3.001110865E0,-7.605000585E-2,9.711000443E0,1.375950098E0
3.003617559E0,-3.299999982E-2,9.976950645E0,9.330000281E-1
3.006123199E0,5.205000192E-2,1.028100014E1,5.170500278E-1
3.008629889E0,1.150500029E-1,1.043595028E1,1.309500039E-1
3.011137043E0,5.205000192E-2,1.035300064E1,4.050000105E-3
3.013643814E0,1.395000052E-2,1.003395081E1,9.000000358E-2
3.016149353E0,4.500000179E-2,9.751950264E0,2.680500150E-1
3.018656043E0,1.789500117E-1,9.567000389E0,4.759500325E-1
3.021163427E0,3.040500283E-1,9.523950577E0,7.200000286E-1
3.023669968E0,3.520500064E-1,9.478950500E0,1.233000040E0
3.026175732E0,3.060000241E-1,9.511950493E0,1.860000134E0
3.028682269E0,2.419500053E-1,9.451950073E0,2.178000212E0
3.031189653E0,9.105000645E-2,9.349050522E0,2.323950052E0
3.033696348E0,-5.205000192E-2,9.160050392E0,2.326950073E0
3.036201978E0,-1.240500063E-1,9.115050316E0,2.095050097E0
3.038708668E0,-1.840500087E-1,9.286950111E0,1.792950034E0
3.041216053E0,-1.740000099E-1,9.649050713E0,1.351950049E0
3.043722516E0,-1.600500047E-1,1.002000046E1,9.690000415E-1
3.046228358E0,-7.605000585E-2,1.033800030E1,5.719500184E-1
3.048734817E0,-1.395000052E-2,1.044600010E1,1.410000026E-1
3.051242202E0,-4.695000127E-2,1.033305073E1,-1.290000081E-1
3.053748665E0,-7.800000161E-2,1.005105019E1,-2.050500065E-1
3.056254521E0,1.395000052E-2,9.871050835E0,-4.695000127E-2
3.058760981E0,1.099500060E-1,9.826050758E0,2.100000083E-1
3.061268443E0,2.560500205E-1,9.763950348E0,5.410500169E-1
3.063775137E0,2.989500165E-1,9.673050880E0,1.039050102E0
3.066280747E0,2.610000074E-1,9.618000031E0,1.567950130E0
3.068787438E0,1.819500029E-1,9.543000221E0,1.932000041E0
3.071294591E0,8.595000207E-2,9.438000679E0,2.026950121E0
3.073801286E0,-5.205000192E-2,9.304050446E0,2.025000095E0
3.076306920E0,-1.669500023E-1,9.184050560E0,1.953000069E0
3.078813610E0,-2.460000068E-1,9.309000015E0,1.822050095E0
3.081320995E0,-2.269500047E-1,9.583950043E0,1.471950054E0
3.083827459E0,-1.279500127E-1,9.900000572E0,1.039050102E0
3.086333300E0,-1.395000052E-2,1.024500084E1,7.150500417E-1
3.088839759E0,4.995000362E-2,1.041705036E1,2.269500047E-1
3.091347144E0,3.600000218E-2,1.036200047E1,-1.410000026E-1
3.093853684E0,-3.299999982E-2,1.007505035E1,-2.599500120E-1
3.096359469E0,-4.005000368E-2,9.754050255E0,-1.459500045E-1
3.098866005E0,1.695000008E-2,9.679950714E0,1.740000099E-1
3.101373390E0,1.480500102E-1,9.744000435E0,5.209500194E-1
3.103880084E0,2.820000052E-1,9.835050583E0,9.210000634E-1
3.106385684E0,2.680500150E-1,9.802050591E0,1.426050067E0
3.108892144E0,1.819500029E-1,9.579000473E0,1.836000085E0
3.111399759E0,9.105000645E-2,9.286950111E0,1.915050149E0
3.113906223E0,-2.595000155E-2,9.081000328E0,1.956000090E0
3.116412079E0,-9.000000358E-2,9.085950851E0,1.989000082E0
3.118918539E0,-1.480500102E-1,9.357000351E0,1.956000090E0
3.121425923E0,-1.639500111E-1,9.772950172E0,1.714050055E0
3.123932464E0,-1.170000061E-1,1.007205009E1,1.291950107E0
3.126438223E0,-5.700000376E-2,1.027395058E1,8.040000200E-1
3.128944759E0,4.950000439E-3,1.031895065E1,2.989500165E-1
3.131452144E0,2.400000021E-2,1.021095085E1,-1.890000105E-1
3.133958608E0,-3.299999982E-2,9.997950554E0,-3.990000188E-1
3.136464435E0,-7.095000148E-2,9.844950676E0,-3.130500019E-1
3.138970894E0,0.000000000E0,9.778050423E0,9.000000544E-3
3.141478510E0,1.360500008E-1,9.844950676E0,4.810500145E-1
3.143984973E0,2.370000184E-1,9.883050919E0,9.169500470E-1
3.146490819E0,2.610000074E-1,9.826050758E0,1.410000086E0
3.148997279E0,1.939500123E-1,9.622050285E0,1.777950048E0
3.151504664E0,1.099500060E-1,9.313050270E0,1.819050074E0
3.154011127E0,-3.495000303E-2,9.048000336E0,1.777950048E0
3.156516973E0,-1.669500023E-1,9.072000504E0,1.807050109E0
3.159023510E0,-2.670000196E-1,9.364050865E0,1.824000120E0
3.161530817E0,-2.820000052E-1,9.840000153E0,1.687050104E0
3.164037358E0,-1.840500087E-1,1.017105007E1,1.233000040E0
3.166543132E0,-1.069500074E-1,1.033605003E1,7.510500550E-1
3.169049669E0,-6.105000153E-2,1.023000050E1,1.840500087E-1
3.171557053E0,1.950000064E-3,9.979050636E0,-4.210500121E-1
3.174063748E0,-2.100000158E-2,9.744000435E0,-7.060500383E-1
3.176569372E0,-2.595000155E-2,9.643950462E0,-5.879999995E-1
3.179076062E0,7.605000585E-2,9.748950005E0,-9.300000221E-2
3.181583447E0,1.819500029E-1,9.925950050E0,5.380499959E-1
3.184089987E0,2.629500031E-1,1.000800037E1,1.045950055E0
3.186595772E0,2.680500150E-1,9.910050392E0,1.453050017E0
3.189102308E0,1.909500062E-1,9.667950630E0,1.636950135E0
3.191609616E0,9.795000404E-2,9.301050186E0,1.615950108E0
3.194116156E0,-5.400000140E-2,9.012000084E0,1.635000110E0
3.196621930E0,-1.960500032E-1,9.079050064E0,1.755000114E0
3.199128467E0,-2.910000086E-1,9.550050735E0,1.765950084E0
3.201635852E0,-2.190000117E-1,1.007505035E1,1.494000077E0
3.204142546E0,-1.519500017E-1,1.039305019E1,1.042950034E0
3.206648146E0,-1.170000061E-1,1.046505070E1,5.770500302E-1
3.209154837E0,-5.205000192E-2,1.025895023E1,2.100000158E-2
3.211662221E0,-7.304999977E-2,9.928950310E0,-5.449500084E-1
3.214168685E0,-9.300000221E-2,9.655950546E0,-7.780500650E-1
3.216674517E0,-4.200000316E-2,9.622050285E0,-6.289500594E-1
3.219180976E0,5.700000376E-2,9.795000076E0,-9.300000221E-2
3.221688361E0,1.429500133E-1,1.002705002E1,6.529500484E-1
3.224194901E0,2.110500038E-1,1.012995052E1,1.258950114E0
3.226700690E0,1.390500069E-1,9.948000908E0,1.659000039E0
3.229207226E0,5.700000376E-2,9.502950668E0,1.678050041E0
3.231714611E0,-6.599999964E-2,9.048000336E0,1.467000127E0
3.234221074E0,-2.340000123E-1,9.012000084E0,1.507950068E0
3.236726916E0,-3.439500034E-1,9.471000671E0,1.683000088E0
3.239233375E0,-3.340500295E-1,1.011795044E1,1.684950113E0
3.241740760E0,-2.239500135E-1,1.043595028E1,1.288050056E0
3.244247454E0,-1.210500076E-1,1.040505028E1,7.080000043E-1
3.246753074E0,-1.000500023E-1,1.005300045E1,1.189500093E-1
3.249259765E0,-2.805000171E-2,9.735000610E0,-5.479500294E-1
3.251767149E0,1.950000064E-3,9.649050713E0,-9.400500655E-1
3.254273690E0,4.800000042E-2,9.756000519E0,-7.780500650E-1
3.256779444E0,1.290000081E-1,9.916950226E0,-2.220000178E-1
3.259285980E0,1.890000105E-1,9.991050720E0,5.479500294E-1
3.261793365E0,2.340000123E-1,9.883050919E0,1.173000097E0
3.264299829E0,2.269500047E-1,9.661050797E0,1.501050115E0
3.266805656E0,1.549500078E-1,9.316050529E0,1.612950087E0
3.269312115E0,6.000000238E-2,9.036000252E0,1.575000048E0
3.271819500E0,-2.595000155E-2,9.100049973E0,1.660950065E0
3.274326194E0,-2.100000083E-1,9.565050125E0,1.927050114E0
3.276831796E0,-3.199500144E-1,1.008900070E1,1.993950129E0
3.279338486E0,-2.410500050E-1,1.035705090E1,1.455000043E0
3.281845871E0,-1.740000099E-1,1.022100067E1,5.959500074E-1
3.284352334E0,-2.050500065E-1,9.859050751E0,-1.429500133E-1
3.286858189E0,-1.860000044E-1,9.462000847E0,-7.900500298E-1
3.289364726E0,-1.519500017E-1,9.400050163E0,-1.060050011E0
3.291872033E0,-7.605000585E-2,9.766050339E0,-7.350000143E-1
3.294378574E0,5.505000427E-2,1.026405048E1,-2.029500157E-1
3.296884339E0,1.630500108E-1,1.042905045E1,4.470000267E-1
3.299390876E0,1.480500102E-1,1.022295094E1,9.480000734E-1
3.301898260E0,7.605000585E-2,9.679950714E0,1.206000090E0
3.304404955E0,-2.595000155E-2,9.129000664E0,1.257000089E0
3.306910550E0,-9.495000541E-2,8.887050629E0,1.278000116E0
3.309417240E0,-1.639500111E-1,9.214950562E0,1.555950046E0
3.311924625E0,-2.410500050E-1,9.901950836E0,1.873950124E0
3.314431088E0,-3.010500073E-1,1.035705090E1,1.929000139E0
3.316936921E0,-2.599500120E-1,1.045305061E1,1.501050115E0
3.319443380E0,-1.759500057E-1,1.008705044E1,6.390000582E-1
3.321950765E0,-1.429500133E-1,9.535950661E0,-2.509500086E-1
3.324457305E0,-7.800000161E-2,9.127050400E0,-8.710500598E-1
3.326963022E0,-6.000000052E-3,9.178950310E0,-9.910500646E-1
3.329469558E0,1.219500080E-1,9.673050880E0,-5.020500422E-1
3.331976943E0,2.539499998E-1,1.030905056E1,2.560500205E-1
3.334483637E0,3.250500262E-1,1.062105083E1,9.379500151E-1
3.336989262E0,3.109500110E-1,1.037895012E1,1.290000081E0
3.339495953E0,1.669500023E-1,9.720000267E0,1.279950023E0
3.342003337E0,-1.605000161E-2,8.956950188E0,1.054949999E0
3.344509801E0,-1.999500096E-1,8.701050758E0,9.169500470E-1
3.347015647E0,-3.370500207E-1,9.151050568E0,1.168050051E0
3.349522106E0,-4.210500121E-1,1.000095081E1,1.594050050E0
3.352029491E0,-3.660000265E-1,1.069695091E1,1.726050138E0
3.354536032E0,-2.509500086E-1,1.071405029E1,1.194000006E0
3.357041780E0,-2.100000083E-1,1.019895077E1,4.999500215E-1
3.359548316E0,-2.100000083E-1,9.486000061E0,-1.930500120E-1
3.362055701E0,-1.360500008E-1,9.072000504E0,-8.640000224E-1
3.364562164E0,-2.805000171E-2,9.316050529E0,-9.520500302E-1
3.367068021E0,1.120500043E-1,9.922050476E0,-4.470000267E-1
3.369574480E0,2.179500163E-1,1.039995003E1,3.660000265E-1
3.372081865E0,2.179500163E-1,1.044795036E1,1.161000013E0
3.374588559E0,1.669500023E-1,1.002900028E1,1.450050116E0
3.377094208E0,6.900000572E-2,9.415950775E0,1.357050061E0
3.379600899E0,-5.895000324E-2,8.854050636E0,1.098000050E0
3.382108283E0,-1.519500017E-1,8.830050468E0,9.739500284E-1
3.384614824E0,-2.910000086E-1,9.400050163E0,1.278000116E0
3.387120612E0,-4.009500146E-1,1.015605068E1,1.636950135E0
3.389627149E0,-3.970500231E-1,1.067595005E1,1.647000074E0
3.392134533E0,-2.959500253E-1,1.064505005E1,9.330000281E-1
3.394640997E0,-2.359500080E-1,1.004595089E1,-9.000000544E-3
3.397146833E0,-2.050500065E-1,9.322950363E0,-8.040000200E-1
3.399653292E0,-1.360500008E-1,8.932950020E0,-1.318950057E0
3.402160677E0,-4.050000105E-3,9.175050735E0,-1.069950104E0
3.404667371E0,1.549500078E-1,9.876000404E0,-2.650500238E-1
3.407172982E0,3.060000241E-1,1.045095062E1,6.100500226E-1
3.409679672E0,3.349500299E-1,1.047705078E1,1.300050020E0
3.412187057E0,2.610000074E-1,1.000095081E1,1.527000070E0
3.414693597E0,1.290000081E-1,9.181950569E0,1.381050110E0
3.417199136E0,-1.095000096E-2,8.631000519E0,1.168050051E0
3.419705903E0,-1.549500078E-1,8.868000031E0,1.249050021E0
3.422213211E0,-2.770500183E-1,9.670050621E0,1.594050050E0
3.424719751E0,-3.990000188E-1,1.044405079E1,1.786050081E0
3.427225612E0,-4.009500146E-1,1.080705070E1,1.479000092E0
3.429732072E0,-3.370500207E-1,1.048695087E1,6.030000448E-1
3.432239456E0,-3.030000031E-1,9.782999992E0,-3.040500283E-1
3.434746151E0,-2.959500253E-1,9.069000244E0,-1.000050068E0
3.437251766E0,-1.690500081E-1,8.905950546E0,-1.338000059E0
3.439758456E0,4.305000231E-2,9.448050499E0,-9.379500151E-1
3.442265841E0,2.299500108E-1,1.026600075E1,-5.700000376E-2
3.444772305E0,3.540000021E-1,1.069500065E1,9.190500379E-1
3.447278136E0,3.130500019E-1,1.046805096E1,1.537050128E0
3.449784595E0,1.579500139E-1,9.760950089E0,1.600950122E0
3.452291980E0,1.200000010E-2,8.920950890E0,1.218000054E0
3.454798520E0,-1.360500008E-1,8.614050865E0,9.240000248E-1
3.457304300E0,-2.530499995E-1,9.148050308E0,1.134000063E0
3.459810836E0,-3.820500076E-1,1.008705044E1,1.632000089E0
3.462318221E0,-3.940500319E-1,1.083405018E1,1.816950083E0
3.464824684E0,-2.839500010E-1,1.087200069E1,1.245000005E0
3.467330559E0,-1.810500026E-1,1.016595078E1,2.530499995E-1
3.469837250E0,-2.220000178E-1,9.270000458E0,-5.550000072E-1
3.472344634E0,-1.360500008E-1,8.698050499E0,-1.174950004E0
3.474851098E0,1.695000008E-2,8.926050186E0,-1.182000041E0
3.477356953E0,1.990500093E-1,9.760950089E0,-3.919500113E-1
3.479863413E0,3.570000231E-1,1.045095062E1,5.839500427E-1
3.482370797E0,3.640500307E-1,1.059000015E1,1.351950049E0
3.484877338E0,2.269500047E-1,1.010805035E1,1.680000067E0
3.487383175E0,2.895000204E-2,9.328050613E0,1.398000121E0
3.489889711E0,-1.020000055E-1,8.835000038E0,1.003050089E0
3.492397096E0,-2.509500086E-1,9.117000580E0,8.950500488E-1
3.494903790E0,-4.210500121E-1,9.852000237E0,1.182000041E0
3.497409401E0,-5.140500069E-1,1.059000015E1,1.395000100E0
3.499916091E0,-4.060500264E-1,1.080495071E1,1.036050081E0
3.502423476E0,-2.939999998E-1,1.028805065E1,2.269500047E-1
3.504929939E0,-2.509500086E-1,9.439949989E0,-5.260500312E-1
3.507435756E0,-1.999500096E-1,8.859000206E0,-1.122000098E0
3.509942216E0,-4.050000105E-3,8.952000618E0,-1.303950071E0
3.512449600E0,1.819500029E-1,9.723000526E0,-7.200000286E-1
3.514956141E0,2.970000207E-1,1.047900009E1,2.800500095E-1
3.517461935E0,2.749500275E-1,1.067100048E1,1.146000028E0
3.519968472E0,1.000500023E-1,1.024200058E1,1.564950109E0
3.522475856E0,-5.400000140E-2,9.424050331E0,1.326000094E0
3.524982320E0,-2.100000083E-1,8.866050720E0,8.640000224E-1
3.527488098E0,-3.270000219E-1,9.036000252E0,7.300500274E-1
3.529994635E0,-3.940500319E-1,9.823050499E0,1.042950034E0
3.532502019E0,-4.609500170E-1,1.059900093E1,1.314000010E0
3.535008713E0,-4.249500334E-1,1.095600033E1,1.168050051E0
3.537514315E0,-2.770500183E-1,1.054200077E1,4.140000343E-1
3.540021005E0,-1.999500096E-1,9.691950798E0,-4.810500145E-1
3.542528390E0,-1.170000061E-1,9.004950523E0,-1.122000098E0
3.545034853E0,3.795000166E-2,8.872950554E0,-1.321050048E0
3.547540680E0,1.870500147E-1,9.427950859E0,-7.080000043E-1
3.550047140E0,3.250500262E-1,1.015395069E1,3.630000055E-1
3.552554602E0,3.640500307E-1,1.039800072E1,1.266000032E0
3.555061065E0,2.700000107E-1,1.015395069E1,1.711050034E0
3.557566911E0,7.395000011E-2,9.519000053E0,1.587000132E0
3.560073371E0,-8.100000024E-2,9.048000336E0,1.168050051E0
3.562580755E0,-2.430000156E-1,9.187050819E0,1.018950105E0
3.565087219E0,-4.210500121E-1,9.816000938E0,1.273050070E0
3.567593079E0,-5.020500422E-1,1.051500034E1,1.399950027E0
3.570099769E0,-4.279500246E-1,1.082400036E1,1.029000044E0
3.572607154E0,-2.790000141E-1,1.045605087E1,1.500000060E-1
3.575113618E0,-2.670000196E-1,9.724950790E0,-6.030000448E-1
3.577619450E0,-2.220000178E-1,9.169950485E0,-1.173000097E0
3.580125909E0,-8.295000345E-2,9.141000748E0,-1.407000065E0
3.582633294E0,3.299999982E-2,9.625050545E0,-9.190500379E-1
3.585139834E0,1.579500139E-1,1.014900017E1,-2.100000158E-2
3.587645628E0,1.789500117E-1,1.025700092E1,7.800000310E-1
3.590152164E0,6.195000187E-2,9.972000122E0,1.336050034E0
3.592659549E0,-6.599999964E-2,9.451950073E0,1.366950035E0
3.595166243E0,-1.639500111E-1,9.151050568E0,1.125000000E0
3.597671858E0,-2.550000250E-1,9.366000175E0,1.075049996E0
3.600178318E0,-3.490500152E-1,9.967050552E0,1.290000081E0
3.602685703E0,-3.850500286E-1,1.053900051E1,1.387950063E0
3.605192397E0,-3.030000031E-1,1.069500065E1,9.840000272E-1
3.607698021E0,-1.930500120E-1,1.030905056E1,9.000000358E-2
3.610204712E0,-1.620000005E-1,9.606000900E0,-8.110500574E-1
3.612712096E0,-1.240500063E-1,9.031050682E0,-1.471950054E0
3.615218637E0,-2.595000155E-2,9.024000168E0,-1.599000096E0
3.617724416E0,8.595000207E-2,9.567000389E0,-9.000000358E-1
3.620230952E0,2.130000144E-1,1.019505024E1,1.530000120E-1
3.622738337E0,2.869500220E-1,1.039095020E1,9.960000515E-1
3.625245031E0,1.720500141E-1,1.002900028E1,1.381050110E0
3.627750652E0,2.895000204E-2,9.402000427E0,1.246950030E0
3.630257111E0,-8.295000345E-2,9.028950691E0,9.480000734E-1
3.632764727E0,-2.149500102E-1,9.378000259E0,1.039050102E0
3.635271190E0,-3.730500042E-1,1.022295094E1,1.419000030E0
3.637776782E0,-4.330500066E-1,1.088400078E1,1.522050023E0
3.640283472E0,-3.439500034E-1,1.097700024E1,9.360000491E-1
3.642790857E0,-2.580000162E-1,1.030905056E1,-1.260000020E-1
3.645297397E0,-3.199500144E-1,9.385050774E0,-9.330000281E-1
3.647803146E0,-3.270000219E-1,8.815050125E0,-1.525050044E0
3.650309683E0,-1.720500141E-1,9.013950348E0,-1.575000048E0
3.652817067E0,0.000000000E0,9.768000603E0,-8.809500337E-1
3.655323531E0,1.650000066E-1,1.040505028E1,6.900000572E-2
3.657829377E0,2.010000050E-1,1.044600010E1,8.970000148E-1
3.660335837E0,5.205000192E-2,1.000305080E1,1.383000016E0
3.662843452E0,-7.095000148E-2,9.357000351E0,1.245000005E0
3.665349916E0,-1.170000061E-1,9.124050140E0,9.550500512E-1
3.667855777E0,-2.170500159E-1,9.591000557E0,9.760500193E-1
3.670362236E0,-3.300000131E-1,1.031400013E1,1.182000041E0
3.672869621E0,-4.180500209E-1,1.085100079E1,1.185000062E0
3.675376084E0,-3.439500034E-1,1.084800053E1,6.580500603E-1
3.677881901E0,-2.340000123E-1,1.024005032E1,-3.349500299E-1
3.680388360E0,-2.359500080E-1,9.451950073E0,-1.257000089E0
3.682895745E0,-1.960500032E-1,9.007050514E0,-1.810050130E0
3.685402285E0,-5.400000140E-2,9.142950058E0,-1.750050068E0
3.687908035E0,6.705000252E-2,9.807000160E0,-9.169500470E-1
3.690414572E0,2.149500102E-1,1.041705036E1,1.690500081E-1
3.692921957E0,2.440500110E-1,1.048695087E1,1.006950021E0
3.695428651E0,1.000500023E-1,9.997950554E0,1.294950008E0
3.697934241E0,-3.795000166E-2,9.151050568E0,1.017000079E0
3.700440932E0,-1.240500063E-1,8.835000038E0,7.300500274E-1
3.702948316E0,-2.310000062E-1,9.397050858E0,9.600000381E-1
3.705454857E0,-3.630000055E-1,1.032405090E1,1.366950035E0
3.707960626E0,-3.799500167E-1,1.103700066E1,1.455000043E0
3.710467085E0,-2.220000178E-1,1.102305031E1,7.489500642E-1
3.712974470E0,-1.789500117E-1,1.021905041E1,-3.010500073E-1
3.715481011E0,-2.890500128E-1,9.282000542E0,-1.096050024E0
3.717986780E0,-3.130500019E-1,8.779950142E0,-1.735050082E0
3.720493316E0,-1.789500117E-1,9.055050850E0,-1.780950069E0
3.723000701E0,-2.295000106E-2,9.867000580E0,-9.430500269E-1
3.725507395E0,9.600000083E-2,1.053495026E1,1.620000005E-1
3.728012997E0,9.300000221E-2,1.059000015E1,1.090950012E0
3.730519687E0,-1.095000096E-2,1.000800037E1,1.477050066E0
3.733027071E0,-8.805000782E-2,9.133950233E0,1.234950066E0
3.735533535E0,-1.050000042E-1,8.716950417E0,9.190500379E-1
3.738039415E0,-1.279500127E-1,9.154950142E0,9.760500193E-1
3.740545875E0,-1.669500023E-1,1.012500095E1,1.369050026E0
3.743053259E0,-1.980000138E-1,1.087200069E1,1.620000124E0
3.745559800E0,-1.120500043E-1,1.100100040E1,1.225050092E0
3.748065569E0,-4.695000127E-2,1.039095020E1,6.195000187E-2
3.750572096E0,-8.805000782E-2,9.493050575E0,-1.063050032E0
3.753079480E0,-1.140000075E-1,8.868000031E0,-1.867050052E0
3.755586174E0,-6.900000572E-2,8.851050377E0,-1.903050065E0
3.758091790E0,1.200000010E-2,9.495000839E0,-1.039050102E0
3.760598485E0,7.905000448E-2,1.020705032E1,8.295000345E-2
3.763105639E0,1.530000120E-1,1.041000080E1,8.830500245E-1
3.765612333E0,6.195000187E-2,1.010595036E1,1.182000041E0
3.768118179E0,-1.069500074E-1,9.424050331E0,1.033950090E0
3.770624658E0,-2.239500135E-1,8.905950546E0,6.889500618E-1
3.773132043E0,-3.679500222E-1,9.234000206E0,7.609500289E-1
3.775638583E0,-4.759500325E-1,1.015905094E1,1.144050002E0
3.778144352E0,-4.330500066E-1,1.096800041E1,1.144050002E0
3.780650879E0,-2.629500031E-1,1.115505028E1,4.330500066E-1
3.783158263E0,-2.719500065E-1,1.051800060E1,-4.759500325E-1
3.785664727E0,-4.009500146E-1,9.586050034E0,-1.362000108E0
3.788170573E0,-3.990000188E-1,8.890050888E0,-2.194950104E0
3.790677019E0,-3.340500295E-1,8.997000694E0,-2.299950123E0
3.793184403E0,-1.600500047E-1,9.756000519E0,-1.501050115E0
3.795691098E0,7.905000448E-2,1.051800060E1,-3.160500228E-1
3.798196713E0,1.429500133E-1,1.077600098E1,7.350000143E-1
3.800703451E0,8.805000782E-2,1.029000092E1,1.168050051E0
3.803210836E0,4.950000439E-3,9.364050865E0,1.004999995E0
3.805717376E0,-5.700000376E-2,8.707950592E0,6.769500375E-1
3.808223146E0,-1.360500008E-1,9.007050514E0,7.110000253E-1
3.810729667E0,-2.340000123E-1,1.004400063E1,1.134000063E0
3.813237052E0,-3.079500198E-1,1.096995068E1,1.494000077E0
3.815743515E0,-2.790000141E-1,1.132200050E1,1.234950066E0
3.818249361E0,-1.930500120E-1,1.078605080E1,1.260000020E-1
3.820755807E0,-2.290500104E-1,9.772950172E0,-9.880500436E-1
3.823263192E0,-2.959500253E-1,8.992950439E0,-1.786050081E0
3.825769886E0,-2.509500086E-1,8.884950638E0,-2.020050049E0
3.828275501E0,-1.120500043E-1,9.535950661E0,-1.450050116E0
3.830782206E0,7.200000435E-2,1.037895012E1,-2.939999998E-1
3.833289590E0,1.890000105E-1,1.078395081E1,7.390500307E-1
3.835796342E0,1.219500080E-1,1.044405079E1,1.302000046E0
3.838303161E0,-1.800000109E-2,9.582000732E0,1.381050110E0
3.840808463E0,-1.069500074E-1,8.690999985E0,1.093950033E0
3.843315846E0,-1.519500017E-1,8.644950867E0,1.077000022E0
3.845822310E0,-1.909500062E-1,9.460050583E0,1.417050123E0
3.848328156E0,-1.879500151E-1,1.052295017E1,1.738050103E0
3.850834601E0,-1.690500081E-1,1.109700012E1,1.624950051E0
3.853341986E0,-1.360500008E-1,1.086705017E1,7.939500213E-1
3.855848680E0,-1.360500008E-1,9.996000290E0,-4.380000234E-1
3.858354296E0,-2.359500080E-1,9.045000076E0,-1.525050044E0
3.860860986E0,-2.770500183E-1,8.578050613E0,-2.130000114E0
3.863368385E0,-2.029500157E-1,8.953950882E0,-1.869000077E0
3.865874925E0,-5.400000140E-2,9.847050667E0,-8.449500203E-1
3.868380694E0,4.500000179E-2,1.051305008E1,2.580000162E-1
3.870887231E0,1.030500084E-1,1.048200035E1,9.379500151E-1
3.873394606E0,1.200000010E-2,9.778050423E0,1.075049996E0
3.875901070E0,-1.069500074E-1,8.827050209E0,8.329500556E-1
3.878406916E0,-2.100000083E-1,8.430000305E0,5.860500336E-1
3.880913376E0,-2.910000086E-1,9.031050682E0,7.870500088E-1
3.883420760E0,-3.460500240E-1,1.017105007E1,1.204050064E0
3.885927455E0,-2.959500253E-1,1.103505039E1,1.206000090E0
3.888433070E0,-2.239500135E-1,1.112100029E1,4.759500325E-1
3.890939779E0,-2.460000068E-1,1.035495090E1,-7.080000043E-1
3.893447164E0,-3.889500201E-1,9.270000458E0,-1.822050095E0
3.895953627E0,-4.369500279E-1,8.598000526E0,-2.583000183E0
3.898459474E0,-3.180000186E-1,8.866050720E0,-2.515950203E0
3.900966010E0,-1.720500141E-1,9.843000412E0,-1.525050044E0
3.903473390E0,5.505000427E-2,1.081005096E1,-2.490000129E-1
3.905979853E0,1.840500087E-1,1.103700066E1,7.390500307E-1
3.908485699E0,1.390500069E-1,1.039995003E1,1.146000028E0
3.910992144E0,-9.000000544E-3,9.289950371E0,9.330000281E-1
3.913499529E0,-1.069500074E-1,8.467950821E0,4.930500090E-1
3.916006223E0,-1.930500120E-1,8.767950058E0,5.860500336E-1
3.918511838E0,-2.959500253E-1,9.919050217E0,1.132050037E0
3.921018529E0,-3.630000055E-1,1.112400055E1,1.546050072E0
3.923525928E0,-2.670000196E-1,1.170495033E1,1.300050020E0
3.926032392E0,-1.960500032E-1,1.113300037E1,2.599500120E-1
3.928538238E0,-3.390000165E-1,9.964950562E0,-7.870500088E-1
3.931044697E0,-4.489500225E-1,9.001950264E0,-1.747050047E0
3.933552058E0,-4.159500301E-1,8.872950554E0,-2.272050142E0
3.936058598E0,-2.650500238E-1,9.756000519E0,-1.836000085E0
3.938564368E0,-5.700000376E-2,1.081005096E1,-7.369500399E-1
3.941070904E0,3.795000166E-2,1.134405041E1,4.350000322E-1
3.943578284E0,0.000000000E0,1.089105034E1,1.141950011E0
3.946084978E0,-1.450500041E-1,9.748950005E0,1.213050008E0
3.948590594E0,-1.930500120E-1,8.583000183E0,8.350500464E-1
3.951097279E0,-1.690500081E-1,8.380050659E0,7.270500064E-1
3.953604663E0,-1.240500063E-1,9.313050270E0,1.173000097E0
3.956111127E0,-7.095000148E-2,1.058700085E1,1.780950069E0
3.958616973E0,-8.805000782E-2,1.134105015E1,1.944000125E0
3.961123404E0,-1.519500017E-1,1.126005077E1,1.338000059E0
3.963630788E0,-1.909500062E-1,1.030005074E1,-6.705000252E-2
3.966137329E0,-3.079500198E-1,9.177000046E0,-1.477050066E0
3.968643098E0,-3.940500319E-1,8.559000015E0,-2.346000195E0
3.971149635E0,-3.820500076E-1,8.808000565E0,-2.242950201E0
3.973657019E0,-2.550000250E-1,9.637050629E0,-1.252050042E0
3.976163483E0,-7.095000148E-2,1.043595028E1,0.000000000E0
3.978669329E0,7.605000585E-2,1.051305008E1,8.089500666E-1
3.981175808E0,5.205000192E-2,9.790050507E0,1.015050054E0
3.983683424E0,-5.400000140E-2,8.650050163E0,8.140500188E-1
3.986189887E0,-1.020000055E-1,7.872000217E0,4.759500325E-1
3.988695733E0,-1.789500117E-1,8.332050323E0,8.140500188E-1
3.991202183E0,-2.629500031E-1,9.618000031E0,1.543950081E0
3.993709568E0,-3.100500107E-1,1.066095066E1,1.831050038E0
3.996216108E0,-2.430000156E-1,1.104000092E1,1.189050078E0
3.998721877E0,-2.550000250E-1,1.042905045E1,-1.219500080E-1
4.001228394E0,-4.420500100E-1,9.394950867E0,-1.327950120E0
4.003735778E0,-5.620500445E-1,8.574000359E0,-2.386950016E0
4.006242473E0,-5.590500236E-1,8.623950005E0,-2.848950148E0
4.008748088E0,-4.660500288E-1,9.543000221E0,-2.274000168E0
4.011254778E0,-2.700000107E-1,1.062105083E1,-1.141950011E0
4.013761961E0,-1.279500127E-1,1.111905098E1,-2.805000171E-2
4.016268656E0,-6.105000153E-2,1.066905022E1,6.199500561E-1
4.018774271E0,-1.210500076E-1,9.646050453E0,6.820500493E-1
4.021280961E0,-2.149500102E-1,8.622000694E0,4.380000234E-1
4.023788365E0,-1.860000044E-1,8.479949951E0,3.540000021E-1
4.026294905E0,-1.909500062E-1,9.415950775E0,8.710500598E-1
4.028800675E0,-2.149500102E-1,1.067295074E1,1.606050134E0
4.031307211E0,-2.580000162E-1,1.150905037E1,1.860000134E0
4.033814610E0,-2.410500050E-1,1.143000031E1,1.162950039E0
4.036321304E0,-2.100000083E-1,1.041495037E1,-2.839500010E-1
4.038826919E0,-3.079500198E-1,9.333000183E0,-1.563000083E0
4.041333610E0,-3.660000265E-1,8.880000114E0,-2.266950130E0
4.043840994E0,-2.890500128E-1,9.412050247E0,-2.128050089E0
4.046347458E0,-1.639500111E-1,1.055595016E1,-1.156050086E0
4.048853304E0,-3.795000166E-2,1.153800011E1,1.905000024E-2
4.051359764E0,4.995000362E-2,1.150200081E1,6.390000582E-1
4.053867129E0,-4.905000329E-2,1.055100060E1,7.270500064E-1
4.056373670E0,-2.700000107E-1,9.220050812E0,4.230000079E-1
4.058879439E0,-3.660000265E-1,8.341050148E0,1.339500099E-1
4.061385898E0,-4.350000322E-1,8.734050751E0,5.209500194E-1
4.063893360E0,-4.090500176E-1,1.003695011E1,1.366950035E0
4.066400054E0,-2.910000086E-1,1.128195095E1,1.924950123E0
4.068905670E0,-1.210500076E-1,1.167900085E1,1.711050034E0
4.071412360E0,-1.380000114E-1,1.100100040E1,9.169500470E-1
4.073919769E0,-3.010500073E-1,9.685050011E0,-2.920500040E-1
4.076426232E0,-3.769500256E-1,8.587950706E0,-1.666050076E0
4.078932078E0,-3.660000265E-1,8.494950294E0,-2.341050148E0
4.081438538E0,-2.839500010E-1,9.298950195E0,-1.956000090E0
4.083945904E0,-1.690500081E-1,1.029795074E1,-8.929500580E-1
4.086452367E0,-1.519500017E-1,1.075200081E1,2.989500165E-1
4.088958213E0,-1.620000005E-1,1.033605003E1,8.539500237E-1
4.091464673E0,-2.070000172E-1,9.285000801E0,6.790500283E-1
4.093972129E0,-3.130500019E-1,8.278950691E0,2.250000089E-1
4.096478593E0,-2.869500220E-1,8.071050644E0,4.305000231E-2
4.098984439E0,-2.389500141E-1,8.904000282E0,4.810500145E-1
4.101491129E0,-2.029500157E-1,1.011600018E1,1.264050007E0
4.103998297E0,-1.909500062E-1,1.085805035E1,1.516950130E0
4.106504992E0,-1.720500141E-1,1.079100037E1,8.400000334E-1
4.109010838E0,-1.999500096E-1,9.901950836E0,-5.530500412E-1
4.111517297E0,-2.650500238E-1,8.842050552E0,-2.013000011E0
4.114024682E0,-3.799500167E-1,8.298000336E0,-2.719050169E0
4.116531222E0,-3.769500256E-1,8.740950584E0,-2.250000000E0
4.119036992E0,-2.939999998E-1,9.811050415E0,-1.090950012E0
4.121543528E0,-1.500000060E-1,1.076205063E1,1.219500080E-1
4.124050860E0,-5.205000192E-2,1.081905079E1,6.960000396E-1
4.126557400E0,-8.805000782E-2,9.958050728E0,6.270000339E-1
4.129063169E0,-2.719500065E-1,8.743950844E0,3.870000243E-1
4.131569937E0,-3.799500167E-1,8.191050529E0,2.920500040E-1
4.134077105E0,-4.230000079E-1,8.893950462E0,7.390500307E-1
4.136583799E0,-4.249500334E-1,1.028595066E1,1.477050066E0
4.139089414E0,-3.799500167E-1,1.141095066E1,1.768950105E0
4.141596105E0,-2.980500162E-1,1.168395042E1,1.206000090E0
4.144103475E0,-2.430000156E-1,1.084800053E1,-2.295000106E-2
4.146609939E0,-3.460500240E-1,9.640950203E0,-1.237050056E0
4.149115785E0,-3.870000243E-1,8.902050018E0,-2.134950161E0
4.151622321E0,-3.100500107E-1,9.166950226E0,-2.365050077E0
4.154129701E0,-1.620000005E-1,1.028805065E1,-1.599000096E0
4.156636164E0,0.000000000E0,1.139895058E1,-3.949500322E-1
4.159142011E0,8.805000782E-2,1.167705059E1,5.410500169E-1
4.161648470E0,2.100000158E-2,1.094895077E1,9.120000601E-1
4.164155855E0,-1.380000114E-1,9.712950706E0,6.870000362E-1
4.166662549E0,-2.430000156E-1,8.635950089E0,3.370500207E-1
4.169168165E0,-2.650500238E-1,8.701050758E0,3.799500167E-1
4.171674855E0,-2.749500275E-1,9.832950592E0,1.053000093E0
4.174182249E0,-2.479500175E-1,1.110900021E1,1.723050117E0
4.176688790E0,-1.690500081E-1,1.176495075E1,1.762050033E0
4.179194559E0,-1.240500063E-1,1.134600067E1,8.260500431E-1
4.181701096E0,-1.720500141E-1,1.003395081E1,-4.810500145E-1
4.184208388E0,-2.939999998E-1,8.775000572E0,-1.680000067E0
4.186714929E0,-3.180000186E-1,8.373000145E0,-2.353049994E0
4.189220698E0,-2.410500050E-1,9.069000244E0,-2.013000011E0
4.191727234E0,-1.189500093E-1,1.018305016E1,-9.259500504E-1
4.194234634E0,4.950000439E-3,1.086705017E1,1.410000026E-1
4.196741328E0,4.950000439E-3,1.057005024E1,7.750500441E-1
4.199246944E0,-1.399500072E-1,9.526950836E0,7.800000310E-1
4.201753634E0,-3.060000241E-1,8.404050827E0,3.949500322E-1
4.204261019E0,-4.009500146E-1,8.121000290E0,1.380000114E-1
4.206767559E0,-4.060500264E-1,8.914050102E0,4.570500255E-1
4.209273328E0,-3.940500319E-1,1.019205093E1,1.054949999E0
4.211779865E0,-3.340500295E-1,1.108800030E1,1.273050070E0
4.214287269E0,-2.290500104E-1,1.101105022E1,6.460500360E-1
4.216793732E0,-2.580000162E-1,1.002000046E1,-4.710000157E-1
4.219299578E0,-3.820500076E-1,8.827050209E0,-1.666050076E0
4.221806038E0,-4.470000267E-1,8.254950523E0,-2.584950209E0
4.224313407E0,-3.340500295E-1,8.767950058E0,-2.547000170E0
4.226820102E0,-1.620000005E-1,9.898050308E0,-1.510050058E0
4.229325717E0,-4.200000316E-2,1.082895088E1,-2.440500110E-1
4.231832407E0,-4.050000105E-3,1.087500095E1,5.860500336E-1
4.234339768E0,-1.140000075E-1,1.007505035E1,7.729500532E-1
4.236846232E0,-2.479500175E-1,8.868000031E0,3.780000210E-1
4.239352078E0,-3.100500107E-1,8.334000587E0,1.000500023E-1
4.241858537E0,-3.390000165E-1,9.009000778E0,3.850500286E-1
4.244365922E0,-3.340500295E-1,1.038105011E1,1.029000044E0
4.246872482E0,-3.370500207E-1,1.138500023E1,1.410000086E0
4.249378329E0,-2.910000086E-1,1.150395012E1,9.670500755E-1
4.251884788E0,-2.310000062E-1,1.060605049E1,-2.509500086E-1
4.254392173E0,-3.010500073E-1,9.403950691E0,-1.474050045E0
4.256898881E0,-3.340500295E-1,8.772000313E0,-2.254950047E0
4.259404496E0,-2.029500157E-1,9.177000046E0,-2.286000013E0
4.261911187E0,-5.700000376E-2,1.028595066E1,-1.354950070E0
4.264418571E0,8.595000207E-2,1.129605007E1,-1.380000114E-1
4.266925021E0,1.669500023E-1,1.138695049E1,6.700500250E-1
4.269430867E0,3.795000166E-2,1.062795067E1,8.950500488E-1
4.271937327E0,-1.360500008E-1,9.448050499E0,6.559500098E-1
4.274444788E0,-2.580000162E-1,8.748000145E0,3.010500073E-1
4.276951252E0,-3.340500295E-1,9.250950813E0,5.119500160E-1
4.279457021E0,-3.850500286E-1,1.050600052E1,1.129950047E0
4.281963557E0,-4.249500334E-1,1.155000019E1,1.519950032E0
4.284470942E0,-3.559500277E-1,1.175805092E1,1.153950095E0
4.286977611E0,-2.700000107E-1,1.089600086E1,-2.805000171E-2
4.289483227E0,-3.460500240E-1,9.583950043E0,-1.125000000E0
4.291989917E0,-4.489500225E-1,8.712000847E0,-1.908000112E0
4.294497302E0,-3.679500222E-1,8.796000481E0,-2.218950033E0
4.297003847E0,-2.100000083E-1,9.634050369E0,-1.768950105E0
4.299509616E0,-3.795000166E-2,1.054395008E1,-7.900500298E-1
4.302016153E0,2.400000021E-2,1.072800064E1,1.960500032E-1
4.304523461E0,-7.800000161E-2,1.008000088E1,8.329500556E-1
4.307030025E0,-1.999500096E-1,9.013950348E0,8.400000334E-1
4.309535794E0,-2.359500080E-1,8.406000137E0,5.689499974E-1
4.312042331E0,-2.100000083E-1,8.752950668E0,5.089499950E-1
4.314549715E0,-2.029500157E-1,9.832950592E0,8.929500580E-1
4.317056410E0,-2.430000156E-1,1.073805046E1,1.245000005E0
4.319562025E0,-2.749500275E-1,1.102995014E1,1.120050073E0
4.322068715E0,-1.279500127E-1,1.041195011E1,1.189500093E-1
4.324576100E0,-1.500000060E-1,9.268050194E0,-1.156050086E0
4.327082564E0,-2.749500275E-1,8.381999969E0,-2.056050062E0
4.329588410E0,-2.410500050E-1,8.341050148E0,-2.430000067E0
4.332094869E0,-1.050000042E-1,9.163050652E0,-1.939050078E0
4.334602331E0,2.400000021E-2,1.016295052E1,-7.510500550E-1
4.337108785E0,7.905000448E-2,1.054200077E1,2.530499995E-1
4.339614631E0,-6.000000052E-3,1.009605026E1,7.470000386E-1
4.342121091E0,-2.100000083E-1,9.141000748E0,7.489500642E-1
4.344628476E0,-3.100500107E-1,8.428050041E0,4.690500200E-1
4.347134924E0,-3.390000165E-1,8.679000854E0,5.119500160E-1
4.349640770E0,-3.850500286E-1,9.787950516E0,1.039050102E0
4.352147461E0,-3.490500152E-1,1.096095085E1,1.441050053E0
4.354654845E0,-2.389500141E-1,1.142505074E1,1.078950047E0
4.357161280E0,-2.359500080E-1,1.093395042E1,1.050000042E-1
4.359667126E0,-3.220500052E-1,9.852000237E0,-1.122000098E0
4.362173662E0,-4.129500091E-1,8.947050095E0,-2.202000141E0
4.364680970E0,-4.129500091E-1,8.887050629E0,-2.727000237E0
4.367187511E0,-3.270000219E-1,9.744000435E0,-2.272050142E0
4.369693280E0,-1.840500087E-1,1.085295010E1,-1.075049996E0
4.372199816E0,-6.405000389E-2,1.134405041E1,1.069500074E-1
4.374707201E0,-4.005000368E-2,1.094895077E1,7.200000286E-1
4.377213881E0,-1.429500133E-1,9.916950226E0,7.350000143E-1
4.379719497E0,-2.029500157E-1,8.941950798E0,4.780500233E-1
4.382226187E0,-1.860000044E-1,8.881950378E0,3.949500322E-1
4.384733572E0,-1.690500081E-1,9.922050476E0,8.659500480E-1
4.387240035E0,-1.789500117E-1,1.121205044E1,1.438050032E0
4.389745881E0,-2.029500157E-1,1.190895081E1,1.543950081E0
4.392252341E0,-1.930500120E-1,1.164105034E1,7.180500627E-1
4.394759725E0,-2.389500141E-1,1.042005062E1,-7.009500265E-1
4.397266271E0,-3.660000265E-1,9.258000374E0,-1.981950045E0
4.399772040E0,-4.180500209E-1,8.822999954E0,-2.671950102E0
4.402278577E0,-3.300000131E-1,9.304050446E0,-2.406000137E0
4.404785961E0,-2.269500047E-1,1.022805023E1,-1.357050061E0
4.407292406E0,-8.505000174E-2,1.083600044E1,-1.770000011E-1
4.409798252E0,-4.500000179E-2,1.057005024E1,6.120000482E-1
4.412304942E0,-1.840500087E-1,9.639000893E0,8.659500480E-1
4.414812327E0,-2.580000162E-1,8.692950249E0,7.110000253E-1
4.417318775E0,-2.359500080E-1,8.559000015E0,6.390000582E-1
4.419824622E0,-1.999500096E-1,9.340050697E0,1.006950021E0
4.422331081E0,-1.909500062E-1,1.047705078E1,1.543950081E0
4.424838466E0,-1.260000020E-1,1.114005089E1,1.552950025E0
4.427345011E0,-4.905000329E-2,1.088205051E1,7.249500155E-1
4.429850780E0,-1.450500041E-1,9.910050392E0,-4.690500200E-1
4.432357317E0,-3.079500198E-1,8.863050461E0,-1.624950051E0
4.434864702E0,-3.970500231E-1,8.428050041E0,-2.490000010E0
4.437371170E0,-3.940500319E-1,8.847000122E0,-2.502000093E0
4.439877016E0,-3.220500052E-1,9.795000076E0,-1.644000053E0
4.442383707E0,-2.290500104E-1,1.042200089E1,-5.190000534E-1
4.444891091E0,-1.980000138E-1,1.030005074E1,3.319500089E-1
4.447397550E0,-2.770500183E-1,9.517050743E0,6.270000339E-1
4.449903396E0,-2.700000107E-1,8.607000351E0,5.430000424E-1
4.452409855E0,-1.789500117E-1,8.428050041E0,4.519500136E-1
4.454917240E0,-1.279500127E-1,9.217950821E0,8.209500313E-1
4.457423762E0,-1.429500133E-1,1.044105053E1,1.350000024E0
4.459929531E0,-1.240500063E-1,1.122405052E1,1.342950106E0
4.462436067E0,-1.639500111E-1,1.112595081E1,6.390000582E-1
4.464943452E0,-2.070000172E-1,1.019700050E1,-7.350000143E-1
4.467449905E0,-3.750000298E-1,9.121950150E0,-2.062950134E0
4.469955752E0,-4.849500358E-1,8.683950424E0,-2.796000242E0
4.472462442E0,-4.420500100E-1,9.213000298E0,-2.703000069E0
4.474969826E0,-3.559500277E-1,1.030905056E1,-1.740000129E0
4.477476367E0,-2.070000172E-1,1.111395073E1,-5.329500437E-1
4.479982136E0,-1.189500093E-1,1.106595039E1,3.040500283E-1
4.482488596E0,-1.909500062E-1,1.029795074E1,6.000000238E-1
4.484995980E0,-2.820000052E-1,9.285000801E0,5.020500422E-1
4.487502521E0,-2.629500031E-1,8.952000618E0,4.159500301E-1
4.490008290E0,-2.340000123E-1,9.718050003E0,8.640000224E-1
4.492514827E0,-2.190000117E-1,1.093905067E1,1.600950122E0
4.495022211E0,-1.759500057E-1,1.172205067E1,1.813950062E0
4.497528891E0,-1.380000114E-1,1.156395054E1,1.204050064E0
4.500034507E0,-6.599999964E-2,1.044795036E1,-1.240500063E-1
4.502541197E0,-1.879500151E-1,9.178950310E0,-1.291950107E0
4.505048582E0,-2.749500275E-1,8.571000099E0,-2.008050203E0
4.507555044E0,-2.509500086E-1,9.004950523E0,-2.073000193E0
4.510060890E0,-1.740000099E-1,1.006500053E1,-1.350000024E0
4.512567350E0,-1.170000061E-1,1.091805077E1,-3.180000186E-1
4.515074812E0,-1.840500087E-1,1.090305042E1,3.919500113E-1
4.517581271E0,-4.090500176E-1,1.013505077E1,6.910500526E-1
4.520087117E0,-5.359500051E-1,9.133950233E0,4.860000312E-1
4.522593577E0,-4.680000246E-1,8.770050049E0,1.000500023E-1
4.525100961E0,-4.039500058E-1,9.463950157E0,2.490000129E-1
4.527607656E0,-4.330500066E-1,1.071705055E1,8.850000501E-1
4.530113275E0,-3.610500097E-1,1.164105034E1,1.063050032E0
4.532619965E0,-2.890500128E-1,1.170795059E1,3.919500113E-1
4.535127350E0,-3.300000131E-1,1.078605080E1,-8.419500589E-1
4.537633814E0,-4.590000212E-1,9.511950493E0,-2.193000078E0
4.540139675E0,-5.119500160E-1,8.632950783E0,-3.067050219E0
4.542646134E0,-4.710000157E-1,8.611950874E0,-2.877000093E0
4.545153519E0,-2.890500128E-1,9.244050026E0,-1.728000045E0
4.547660059E0,-4.200000316E-2,9.889950752E0,-3.229500055E-1
4.550165848E0,9.795000404E-2,1.002495003E1,7.990500331E-1
4.552672384E0,1.240500063E-1,9.507000923E0,1.302000046E0
4.555179769E0,1.339500099E-1,8.832000732E0,1.174950004E0
4.557686463E0,5.505000427E-2,8.503950119E0,1.168050051E0
4.560192078E0,-1.260000020E-1,9.108000755E0,1.455000043E0
4.562698769E0,-3.130500019E-1,1.008405018E1,1.666050076E0
4.565206153E0,-3.919500113E-1,1.083600044E1,1.395000100E0
4.567712617E0,-3.250500262E-1,1.087905025E1,2.629500031E-1
4.570218463E0,-4.159500301E-1,1.030200005E1,-8.590500355E-1
4.572724923E0,-6.340500116E-1,9.522000313E0,-1.792950034E0
4.575232307E0,-7.410000563E-1,9.120000839E0,-2.724000216E0
4.577738848E0,-7.530000210E-1,9.473999977E0,-3.004050255E0
4.580244617E0,-6.430500150E-1,1.030005074E1,-2.371950150E0
4.582751153E0,-4.489500225E-1,1.088205051E1,-1.294950008E0
4.585258538E0,-2.959500253E-1,1.077600098E1,-3.060000241E-1
4.587765232E0,-3.010500073E-1,1.012305069E1,3.420000076E-1
4.590270843E0,-2.670000196E-1,9.310950279E0,5.719500184E-1
4.592777533E0,-1.399500072E-1,9.109950066E0,7.180500627E-1
4.595284918E0,4.950000439E-3,9.775950432E0,1.185000062E0
4.597791381E0,7.200000435E-2,1.081905079E1,1.801950097E0
4.600297242E0,6.195000187E-2,1.139205074E1,2.001000166E0
4.602803702E0,-1.800000109E-2,1.117395020E1,1.570050120E0
4.605311087E0,-1.395000052E-2,1.021905041E1,2.890500128E-1
4.607817627E0,-6.105000153E-2,9.103050232E0,-1.192050099E0
4.610323410E0,-1.840500087E-1,8.692950249E0,-2.014950037E0
4.612829947E0,-2.149500102E-1,9.196050644E0,-2.080049992E0
4.615337331E0,-2.310000062E-1,1.011300087E1,-1.419000030E0
4.617844026E0,-2.910000086E-1,1.081500053E1,-4.159500301E-1
4.620349655E0,-3.889500201E-1,1.070205021E1,1.339500099E-1
4.622856345E0,-5.260500312E-1,9.960000038E0,2.410500050E-1
4.625363730E0,-6.790500283E-1,9.025950432E0,-1.095000096E-2
4.627870194E0,-7.459500432E-1,8.812950134E0,-2.595000155E-2
4.630376026E0,-7.080000043E-1,9.643950462E0,3.319500089E-1
4.632882485E0,-5.689499974E-1,1.090095043E1,8.850000501E-1
4.635389870E0,-3.820500076E-1,1.167195034E1,1.003050089E0
4.637896410E0,-2.749500275E-1,1.139895058E1,5.479500294E-1
4.640402194E0,-2.239500135E-1,1.016595078E1,-5.020500422E-1
4.642908730E0,-2.749500275E-1,8.710050583E0,-1.720950127E0
4.645416115E0,-3.010500073E-1,7.957950592E0,-2.461050034E0
4.647922809E0,-1.909500062E-1,8.506950378E0,-2.308050156E0
4.650428440E0,-2.805000171E-2,9.718050003E0,-1.366950035E0
4.652935131E0,1.905000024E-2,1.054200077E1,-1.020000055E-1
4.655442515E0,-1.069500074E-1,1.050795078E1,7.510500550E-1
4.657948979E0,-2.839500010E-1,9.697050095E0,8.569500446E-1
4.660454810E0,-4.369500279E-1,8.806050301E0,5.689499974E-1
4.662961270E0,-4.639500082E-1,8.575950623E0,3.180000186E-1
4.665468654E0,-4.729500115E-1,9.133950233E0,4.140000343E-1
4.667975195E0,-4.800000191E-1,1.015095043E1,8.659500480E-1
4.670480979E0,-3.340500295E-1,1.093695068E1,1.012050033E0
4.672987515E0,-2.290500104E-1,1.097505093E1,5.530500412E-1
4.675494900E0,-2.599500120E-1,1.022595024E1,-3.660000265E-1
4.678001594E0,-3.250500262E-1,9.205950737E0,-1.482000113E0
4.680507229E0,-3.540000021E-1,8.638050079E0,-2.248050213E0
4.683013919E0,-3.060000241E-1,9.013950348E0,-2.190000057E0
4.685521304E0,-2.170500159E-1,9.988950729E0,-1.234950066E0
4.688027767E0,-2.239500135E-1,1.080000019E1,-1.095000096E-2
4.690533632E0,-2.820000052E-1,1.090800095E1,8.140500188E-1
4.693040092E0,-4.590000212E-1,1.022295094E1,9.360000491E-1
4.695547476E0,-5.910000205E-1,9.285000801E0,5.770500302E-1
4.698054017E0,-6.310500503E-1,8.940000534E0,2.959500253E-1
4.700559771E0,-6.190500259E-1,9.522000313E0,4.900500178E-1
4.703066308E0,-5.430000424E-1,1.061400032E1,1.039050102E0
4.705573692E0,-3.220500052E-1,1.137495041E1,1.297050118E0
4.708080387E0,-1.639500111E-1,1.129095078E1,9.049500227E-1
4.710585983E0,-7.304999977E-2,1.039095020E1,-8.295000345E-2
4.713092673E0,-7.605000585E-2,9.345000267E0,-1.173000097E0
4.715600058E0,-8.805000782E-2,8.887050629E0,-1.927050114E0
4.718106521E0,-1.000500023E-1,9.346950531E0,-1.836000085E0
4.720612363E0,-1.840500087E-1,1.018695068E1,-9.330000281E-1
4.723118822E0,-3.220500052E-1,1.061595058E1,1.000500023E-1
4.725626207E0,-5.239500403E-1,1.035495090E1,7.180500627E-1
4.728132747E0,-6.150000095E-1,9.661050797E0,7.200000286E-1
4.730638521E0,-5.520000458E-1,8.962050438E0,2.959500253E-1
4.733145058E0,-5.430000424E-1,8.926050186E0,3.589500189E-1
4.735652443E0,-4.680000246E-1,9.673050880E0,9.190500379E-1
4.738159137E0,-3.180000186E-1,1.055805016E1,1.321050048E0
4.740664766E0,-1.639500111E-1,1.096995068E1,1.150950074E0
4.743171457E0,-1.000500023E-1,1.059195042E1,3.870000243E-1
4.745678841E0,-6.599999964E-2,9.615000725E0,-7.630500197E-1
4.748185305E0,-3.299999982E-2,8.734050751E0,-1.687050104E0
4.750691156E0,-6.105000153E-2,8.626049995E0,-1.867050052E0
4.753197615E0,-4.695000127E-2,9.289950371E0,-1.369050026E0
4.755705000E0,-4.695000127E-2,1.006995010E1,-4.930500090E-1
4.758211541E0,-1.429500133E-1,1.036695004E1,2.939999998E-1
4.760717310E0,-2.910000086E-1,1.006995010E1,4.879500270E-1
4.763223846E0,-4.950000346E-1,9.481050491E0,3.420000076E-1
4.765731231E0,-6.979500055E-1,9.127050400E0,2.410500050E-1
4.768237925E0,-7.650000453E-1,9.357000351E0,4.399500191E-1
4.770743527E0,-6.529500484E-1,1.009605026E1,7.900500298E-1
4.773250217E0,-3.870000243E-1,1.060200024E1,8.809500337E-1
4.775757601E0,-2.389500141E-1,1.062105083E1,7.579500079E-1
4.778264065E0,-1.309500039E-1,1.011105061E1,3.130500019E-1
4.780769896E0,-1.095000096E-2,9.553050041E0,-4.830000103E-1
4.783276356E0,7.605000585E-2,9.366000175E0,-1.261050105E0
4.785783740E0,5.700000376E-2,9.591000557E0,-1.615950108E0
4.788290281E0,-6.900000572E-2,9.828000069E0,-1.162950039E0
4.790796045E0,-3.250500262E-1,9.864000320E0,-2.580000162E-1
4.793302582E0,-5.119500160E-1,9.799950600E0,5.380499959E-1
4.795809966E0,-5.620500445E-1,9.807000160E0,8.590500355E-1
4.798316660E0,-4.999500215E-1,9.874050140E0,7.560000420E-1
4.800822262E0,-5.140500069E-1,1.005105019E1,9.190500379E-1
4.803328952E0,-4.369500279E-1,1.020900059E1,1.168050051E0
4.805836337E0,-2.910000086E-1,1.021605015E1,1.146000028E0
4.808342800E0,-1.240500063E-1,1.018500042E1,9.670500755E-1
4.810848632E0,1.000500023E-1,1.012305069E1,4.420500100E-1
4.813355091E0,2.779500186E-1,1.008000088E1,-2.770500183E-1
4.815862476E0,3.469500244E-1,1.006305027E1,-9.139500260E-1
4.818369016E0,2.149500102E-1,9.961950302E0,-1.161000013E0
4.820874785E0,1.695000008E-2,9.736950874E0,-8.590500355E-1
4.823381355E0,-2.029500157E-1,9.531000137E0,-2.869500220E-1
4.825888739E0,-3.250500262E-1,9.613050461E0,2.050500065E-1
4.828395434E0,-3.889500201E-1,9.913950920E0,4.039500058E-1
4.830901049E0,-4.800000191E-1,1.016295052E1,3.970500231E-1
4.833407720E0,-5.950500369E-1,1.014900017E1,6.439500451E-1
4.835914702E0,-7.290000319E-1,9.912000656E0,9.720000625E-1
4.838421559E0,-5.500500202E-1,9.819000244E0,9.930000305E-1
4.840927415E0,-1.909500062E-1,9.766050339E0,6.079500318E-1
4.843433850E0,-1.095000096E-2,9.784950256E0,5.620500445E-1
4.845941235E0,1.080000028E-1,9.832950592E0,5.089499950E-1
4.848447775E0,2.970000207E-1,9.748950005E0,-2.220000178E-1
4.850953622E0,3.300000131E-1,9.601050377E0,-9.210000634E-1
4.853460067E0,2.269500047E-1,9.427950859E0,-1.006950021E0
4.855967452E0,0.000000000E0,9.249000549E0,-6.169500351E-1
4.858474146E0,-3.319500089E-1,9.337050438E0,1.530000120E-1
4.860979761E0,-5.020500422E-1,9.699000359E0,6.480000019E-1
4.863486413E0,-5.980500579E-1,1.000500011E1,5.719500184E-1
4.865993797E0,-7.060500383E-1,1.019505024E1,5.620500445E-1
4.868500338E0,-7.579500079E-1,1.013700008E1,6.240000129E-1
4.871006107E0,-5.740500093E-1,1.001700020E1,6.910500526E-1
4.873512658E0,-2.340000123E-1,9.691950798E0,5.070000291E-1
4.876020042E0,4.995000362E-2,9.517050743E0,4.470000267E-1
4.878526506E0,2.340000123E-1,9.607950211E0,2.749500275E-1
4.881032352E0,4.600500166E-1,9.840000153E0,-4.570500255E-1
4.883538811E0,4.710000157E-1,1.004895020E1,-8.400000334E-1
4.886046196E0,2.539499998E-1,9.991050720E0,-4.620000124E-1
4.888552890E0,-4.695000127E-2,9.747000694E0,1.099500060E-1
4.891058506E0,-3.940500319E-1,9.598050117E0,6.529500484E-1
4.893565196E0,-5.760000348E-1,9.727950096E0,5.910000205E-1
4.896072605E0,-6.550500393E-1,9.985950470E0,3.010500073E-1
4.898579145E0,-7.489500642E-1,1.020705032E1,4.399500191E-1
4.901084914E0,-8.230500221E-1,1.021395016E1,8.089500666E-1
4.903591451E0,-6.840000153E-1,1.009200001E1,1.101000071E0
4.906098841E0,-2.790000141E-1,9.766050339E0,8.209500313E-1
4.908605304E0,4.500000179E-2,9.547950745E0,6.270000339E-1
4.911111150E0,2.130000144E-1,9.754050255E0,6.340500116E-1
4.913617610E0,4.480500221E-1,9.937950134E0,4.995000362E-2
4.916124989E0,4.189500213E-1,9.976950645E0,-2.080500126E-1
4.918631684E0,1.309500039E-1,9.816000938E0,9.495000541E-2
4.921137299E0,-1.860000044E-1,9.606000900E0,4.039500058E-1
4.923643989E0,-4.969500303E-1,9.687000275E0,6.679500341E-1
4.926151355E0,-6.889500618E-1,9.850050926E0,4.740000367E-1
4.928657895E0,-7.560000420E-1,1.001700020E1,3.040500283E-1
4.931163665E0,-8.250000477E-1,1.009605026E1,4.620000124E-1
4.933670201E0,-7.750500441E-1,9.955050468E0,5.620500445E-1
4.936177586E0,-4.420500100E-1,9.670050621E0,5.430000424E-1
4.938684049E0,-3.000000119E-2,9.345000267E0,4.330500066E-1
4.941189896E0,3.280500174E-1,9.471000671E0,5.929500461E-1
4.943696355E0,6.319500208E-1,9.778050423E0,3.469500244E-1
4.946203730E0,7.440000176E-1,9.867000580E0,-2.100000158E-2
4.948710424E0,5.530500412E-1,9.756000519E0,2.370000184E-1
4.951216039E0,2.779500186E-1,9.531000137E0,5.980500579E-1
4.953722730E0,-9.300000221E-2,9.562050819E0,7.609500289E-1
4.956230114E0,-4.519500136E-1,9.832950592E0,6.030000448E-1
4.958736655E0,-6.859500408E-1,1.000095081E1,1.549500078E-1
4.961242424E0,-9.280500412E-1,1.005600071E1,-7.050000131E-3
4.963748960E0,-1.098000050E0,9.979050636E0,8.100000024E-2
4.966256350E0,-9.109500647E-1,9.826050758E0,6.405000389E-2
4.968762814E0,-4.800000191E-1,9.522000313E0,1.605000161E-2
4.971268660E0,-1.519500017E-1,9.391950607E0,3.610500097E-1
4.973775119E0,1.630500108E-1,9.486000061E0,5.790000558E-1
4.976282519E0,5.119500160E-1,9.598050117E0,2.250000089E-1
4.978789213E0,6.079500318E-1,9.735000610E0,3.130500019E-1
4.981294829E0,4.570500255E-1,9.808950424E0,7.390500307E-1
4.983801519E0,1.650000066E-1,9.739950180E0,9.619500637E-1
4.986308914E0,-3.079500198E-1,9.732000351E0,1.090950012E0
4.988815454E0,-6.529500484E-1,9.835050583E0,9.360000491E-1
4.991321223E0,-8.710500598E-1,1.004100037E1,6.270000339E-1
4.993827760E0,-9.709500670E-1,1.018305016E1,3.630000055E-1
4.996335149E0,-8.490000367E-1,1.007700062E1,7.905000448E-2
4.998841613E0,-5.279999971E-1,9.862050056E0,1.095000096E-2
5.001347459E0,-1.669500023E-1,9.804000854E0,2.560500205E-1
5.003853919E0,1.630500108E-1,9.892950058E0,2.080500126E-1
5.006361312E0,4.549500346E-1,9.832950592E0,-1.860000044E-1
5.008868007E0,5.310000181E-1,9.706050873E0,-1.860000044E-1
5.011373622E0,4.690500200E-1,9.673050880E0,3.370500207E-1
5.013880312E0,2.730000019E-1,9.844950676E0,9.190500379E-1
5.016387688E0,-1.095000096E-2,1.016295052E1,1.333050013E0
5.018894151E0,-3.250500262E-1,1.030200005E1,1.338000059E0
5.021399998E0,-5.500500202E-1,1.020705032E1,1.009950042E0
5.023906457E0,-7.680000067E-1,9.862050056E0,5.689499974E-1
5.026413967E0,-8.010000587E-1,9.606000900E0,2.749500275E-1
5.028920430E0,-5.950500369E-1,9.603000641E0,2.100000083E-1
5.031426276E0,-3.370500207E-1,9.826050758E0,3.490500152E-1
5.033932736E0,-9.300000221E-2,9.946050644E0,2.770500183E-1
5.036440116E0,1.360500008E-1,9.724950790E0,-1.240500063E-1
5.038946810E0,1.990500093E-1,9.403950691E0,-1.410000026E-1
5.041452425E0,1.339500099E-1,9.370950699E0,2.460000068E-1
5.043959116E0,-4.500000179E-2,9.565050125E0,5.879999995E-1
5.046466485E0,-2.479500175E-1,9.936000824E0,1.051050067E0
5.048973026E0,-4.249500334E-1,1.019700050E1,1.266000032E0
5.051478795E0,-5.070000291E-1,1.022805023E1,1.110000014E0
5.053985331E0,-5.929500461E-1,1.012500095E1,8.569500446E-1
5.056492625E0,-5.710500479E-1,9.937950134E0,5.380499959E-1
5.058999166E0,-4.159500301E-1,9.792000771E0,1.620000005E-1
5.061504935E0,-2.149500102E-1,9.691950798E0,-2.839500010E-1
5.064011471E0,-7.800000161E-2,9.567000389E0,-6.720000505E-1
5.066518861E0,-3.495000303E-2,9.622050285E0,-5.209500194E-1
5.069025555E0,-5.205000192E-2,9.934050560E0,-2.805000171E-2
5.071531171E0,-1.170000061E-1,1.025895023E1,3.709500134E-1
5.074037861E0,-2.509500086E-1,1.037400055E1,5.500500202E-1
5.076545246E0,-4.350000322E-1,1.022595024E1,6.580500603E-1
5.079051786E0,-6.030000448E-1,9.867000580E0,6.720000505E-1
5.081557555E0,-7.410000563E-1,9.610050201E0,7.249500155E-1
5.084064015E0,-6.820500493E-1,9.688950539E0,8.590500355E-1
5.086571481E0,-4.879500270E-1,1.000800037E1,9.210000634E-1
5.089077945E0,-3.030000031E-1,1.012305069E1,7.320000529E-1
5.091583791E0,-2.509500086E-1,9.855000496E0,2.370000184E-1
5.094090251E0,-2.580000162E-1,9.442950249E0,-1.530000120E-1
5.096597866E0,-3.610500097E-1,9.415950775E0,-7.605000585E-2
5.099104329E0,-5.140500069E-1,9.739950180E0,9.300000221E-2
5.101610176E0,-5.689499974E-1,1.006305027E1,1.429500133E-1
5.104116635E0,-6.460500360E-1,1.024005032E1,3.349500299E-1
5.106624029E0,-6.120000482E-1,1.019505024E1,6.049500108E-1
5.109130569E0,-4.950000346E-1,9.993000031E0,7.129500508E-1
5.111636339E0,-2.599500120E-1,9.844950676E0,8.089500666E-1
5.114142875E0,7.200000435E-2,9.979050636E0,9.049500227E-1
5.116650265E0,2.850000262E-1,1.017795086E1,6.870000362E-1
5.119156959E0,2.800500095E-1,1.015395069E1,2.170500159E-1
5.121662574E0,5.505000427E-2,9.924000740E0,-1.459500045E-1
5.124169034E0,-3.319500089E-1,9.792000771E0,-1.020000055E-1
5.126676625E0,-7.099500299E-1,9.826050758E0,-3.105000220E-2
5.129183089E0,-9.400500655E-1,9.859050751E0,-2.200500071E-1
5.131688704E0,-1.048050046E0,9.913950920E0,-1.909500062E-1
5.134195395E0,-9.430500269E-1,9.955050468E0,1.380000114E-1
5.136702784E0,-6.820500493E-1,9.958050728E0,3.990000188E-1
5.139209325E0,-2.890500128E-1,9.972000122E0,7.150500417E-1
5.141715094E0,4.800000042E-2,1.003905010E1,9.379500151E-1
5.144221630E0,3.330000043E-1,1.002000046E1,7.489500642E-1
5.146728996E0,4.690500200E-1,9.888000488E0,1.789500117E-1
5.149235690E0,3.109500110E-1,9.799950600E0,-7.095000148E-2
5.151741306E0,-8.295000345E-2,9.823050499E0,8.595000207E-2
5.154247996E0,-5.430000424E-1,9.778050423E0,1.410000026E-1
5.156755381E0,-8.470500112E-1,9.682050705E0,-5.895000324E-2
5.159261844E0,-9.640500546E-1,9.697050095E0,-1.459500045E-1
5.161767459E0,-8.590500355E-1,9.900000572E0,-9.000000544E-3
5.164274150E0,-5.910000205E-1,9.967050552E0,1.219500080E-1
5.166781529E0,-3.250500262E-1,9.925950050E0,4.900500178E-1
5.169288070E0,-3.299999982E-2,9.790050507E0,6.460500360E-1
5.171793839E0,1.939500123E-1,9.727950096E0,2.200500071E-1
5.174300376E0,2.850000262E-1,9.892950058E0,-3.060000241E-1
5.176807755E0,2.220000178E-1,1.014405060E1,-3.949500322E-1
