"Time (s)","Gyroscope x (rad/s)","Gyroscope y (rad/s)","Gyroscope z (rad/s)"
1.830418100E-2,-1.952499896E-2,9.487500414E-3,2.749999985E-4
2.081064600E-2,-4.276249930E-2,9.624999948E-4,1.003750041E-2
2.331803100E-2,-5.128749833E-2,-5.087499972E-3,1.361249946E-2
2.582456900E-2,-4.399999976E-2,-1.251249947E-2,1.608750038E-2
2.833031800E-2,-1.952499896E-2,-1.251249947E-2,1.732499897E-2
3.083678000E-2,4.949999973E-3,-6.324999966E-3,1.608750038E-2
3.334424100E-2,2.447500080E-2,-5.087499972E-3,1.361249946E-2
3.585070500E-2,2.571249940E-2,-1.003750041E-2,1.003750041E-2
3.835659400E-2,2.199999988E-2,-1.732499897E-2,6.324999966E-3
4.086305400E-2,2.076249942E-2,-1.608750038E-2,2.749999985E-4
4.337043800E-2,2.447500080E-2,-1.003750041E-2,-5.912499968E-3
4.587690200E-2,2.694999985E-2,-8.799999952E-3,-1.196249947E-2
4.838273300E-2,3.423750028E-2,-1.512499992E-3,-1.443750039E-2
5.088919200E-2,3.176249936E-2,2.199999988E-3,-1.319999993E-2
5.339680800E-2,1.099999994E-2,-2.749999985E-3,-8.387500420E-3
5.590327100E-2,-1.581249945E-2,-7.562499959E-3,2.749999985E-4
5.840913300E-2,-3.781250119E-2,-2.749999985E-3,8.799999952E-3
6.091559200E-2,-4.881250113E-2,-2.749999985E-3,1.608750038E-2
6.342297700E-2,-4.276249930E-2,-5.087499972E-3,1.732499897E-2
6.592951700E-2,-1.581249945E-2,-3.987499978E-3,1.361249946E-2
6.843530000E-2,1.099999994E-2,-6.324999966E-3,1.003750041E-2
7.094176000E-2,2.694999985E-2,-8.799999952E-3,2.612499986E-3
7.344914500E-2,2.928750031E-2,-1.003750041E-2,2.612499986E-3
7.595568500E-2,2.076249942E-2,-1.127499994E-2,2.749999985E-4
7.846146800E-2,1.828750037E-2,-1.127499994E-2,-9.624999948E-4
8.096800500E-2,1.704999991E-2,-6.324999966E-3,-5.912499968E-3
8.347538900E-2,2.199999988E-2,-3.987499978E-3,-1.072499994E-2
8.598208400E-2,3.052499890E-2,-2.749999985E-4,-1.443750039E-2
8.848774200E-2,2.571249940E-2,2.199999988E-3,-1.319999993E-2
9.099443200E-2,6.187499966E-3,9.624999948E-4,-8.387500420E-3
9.350181700E-2,-2.076249942E-2,-6.324999966E-3,1.512499992E-3
9.600835700E-2,-4.276249930E-2,-3.987499978E-3,8.799999952E-3
9.851411700E-2,-4.523750022E-2,9.624999948E-4,1.484999992E-2
1.010206530E-1,-3.781250119E-2,9.624999948E-4,1.732499897E-2
1.035280380E-1,-1.704999991E-2,-7.562499959E-3,1.484999992E-2
1.060345010E-1,1.223750040E-2,-8.799999952E-3,1.127499994E-2
1.085402950E-1,2.804999985E-2,-1.003750041E-2,7.562499959E-3
1.110468310E-1,3.176249936E-2,-1.374999993E-2,5.087499972E-3
1.135542160E-1,2.804999985E-2,-1.127499994E-2,1.512499992E-3
1.160606790E-1,2.447500080E-2,-7.562499959E-3,2.749999985E-4
1.185665490E-1,2.199999988E-2,-5.087499972E-3,-4.674999975E-3
1.210730090E-1,1.952499896E-2,-8.799999952E-3,-8.387500420E-3
1.235803940E-1,2.076249942E-2,-5.087499972E-3,-1.072499994E-2
1.260870880E-1,1.952499896E-2,4.674999975E-3,-1.072499994E-2
1.285929640E-1,1.237499993E-3,4.674999975E-3,-4.674999975E-3
1.310994240E-1,-2.433750033E-2,-2.749999985E-4,-9.624999948E-4
1.336068080E-1,-4.276249930E-2,9.624999948E-4,5.087499972E-3
1.361132720E-1,-5.376249924E-2,-2.749999985E-4,8.799999952E-3
1.386191560E-1,-4.757500067E-2,-2.749999985E-3,1.127499994E-2
1.411256150E-1,-2.076249942E-2,-3.987499978E-3,1.361249946E-2
1.436330770E-1,1.099999994E-2,-5.087499972E-3,7.562499959E-3
1.461395410E-1,3.423750028E-2,-8.799999952E-3,3.849999979E-3
1.486453440E-1,4.152499884E-2,-1.127499994E-2,2.612499986E-3
1.511518800E-1,3.176249936E-2,-1.498750038E-2,2.612499986E-3
1.536592650E-1,2.323750034E-2,-1.374999993E-2,-3.437499981E-3
1.561659590E-1,1.952499896E-2,-5.087499972E-3,-5.912499968E-3
1.586715790E-1,1.828750037E-2,9.624999948E-4,-7.149999961E-3
1.611780380E-1,1.828750037E-2,9.624999948E-4,-9.487500414E-3
1.636854230E-1,1.718750037E-2,3.437499981E-3,-1.072499994E-2
1.661921940E-1,0.000000000E0,2.199999988E-3,-7.149999961E-3
1.686977320E-1,-2.323750034E-2,2.199999988E-3,-2.199999988E-3
1.712045000E-1,-4.276249930E-2,9.624999948E-4,6.324999966E-3
1.737118070E-1,-5.252499878E-2,-2.749999985E-4,1.251249947E-2
1.762183480E-1,-4.633750021E-2,-1.512499992E-3,1.484999992E-2
1.787241560E-1,-2.323750034E-2,-3.987499978E-3,1.361249946E-2
1.812306930E-1,7.424999960E-3,-6.324999966E-3,1.003750041E-2
1.837380770E-1,3.176249936E-2,-5.087499972E-3,3.849999979E-3
1.862445410E-1,4.523750022E-2,-1.003750041E-2,-2.199999988E-3
1.887503230E-1,3.671250120E-2,-1.251249947E-2,-2.199999988E-3
1.912568590E-1,2.571249940E-2,-1.251249947E-2,-3.437499981E-3
1.937642440E-1,2.199999988E-2,-6.324999966E-3,-2.199999988E-3
1.962709380E-1,1.828750037E-2,2.199999988E-3,-7.149999961E-3
1.987765310E-1,1.828750037E-2,9.624999948E-4,-8.387500420E-3
2.012832210E-1,1.471249945E-2,4.674999975E-3,-8.387500420E-3
2.037906060E-1,0.000000000E0,2.199999988E-3,-5.912499968E-3
2.062970690E-1,-2.557500079E-2,-1.512499992E-3,2.749999985E-4
2.088029150E-1,-4.881250113E-2,-1.512499992E-3,5.087499972E-3
2.113093750E-1,-5.981250107E-2,5.774999969E-3,1.251249947E-2
2.138167600E-1,-5.252499878E-2,5.774999969E-3,1.127499994E-2
2.163233000E-1,-2.928750031E-2,-1.512499992E-3,1.127499994E-2
2.188290550E-1,4.949999973E-3,-7.562499959E-3,5.087499972E-3
2.213355920E-1,3.547500074E-2,-1.127499994E-2,1.512499992E-3
2.238429760E-1,4.647500068E-2,-8.799999952E-3,2.749999985E-4
2.263494400E-1,4.276249930E-2,-8.799999952E-3,-2.199999988E-3
2.288552900E-1,3.547500074E-2,-6.324999966E-3,-9.624999948E-4
2.313617500E-1,2.323750034E-2,-1.003750041E-2,-4.674999975E-3
2.338691340E-1,2.076249942E-2,-1.003750041E-2,-8.387500420E-3
2.363758290E-1,2.076249942E-2,-5.087499972E-3,-9.487500414E-3
2.388814200E-1,1.718750037E-2,7.012499962E-3,-9.487500414E-3
2.413881100E-1,-1.237499993E-3,1.196249947E-2,-3.437499981E-3
2.438954950E-1,-2.804999985E-2,3.437499981E-3,-9.624999948E-4
2.464019580E-1,-5.004999787E-2,-2.749999985E-4,3.849999979E-3
2.489077910E-1,-5.857500061E-2,-2.749999985E-4,8.799999952E-3
2.514142500E-1,-5.252499878E-2,9.624999948E-4,1.251249947E-2
2.539216350E-1,-3.176249936E-2,-2.749999985E-4,1.608750038E-2
2.564281750E-1,8.524999954E-3,9.624999948E-4,1.127499994E-2
2.589339530E-1,3.918749839E-2,-2.749999985E-3,5.087499972E-3
2.614404900E-1,5.018749833E-2,-1.251249947E-2,2.749999985E-4
2.639478750E-1,4.028749838E-2,-2.103750035E-2,-4.674999975E-3
2.664545690E-1,3.423750028E-2,-1.251249947E-2,-2.199999988E-3
2.689601510E-1,2.694999985E-2,-2.749999985E-3,-4.674999975E-3
2.714668420E-1,2.076249942E-2,-2.749999985E-4,-4.674999975E-3
2.739739950E-1,1.594999991E-2,2.199999988E-3,-9.487500414E-3
2.764806900E-1,1.223750040E-2,3.437499981E-3,-9.487500414E-3
2.789863140E-1,-4.812499974E-3,5.774999969E-3,-8.387500420E-3
2.814930040E-1,-2.804999985E-2,7.012499962E-3,-3.437499981E-3
2.840003890E-1,-5.128749833E-2,7.012499962E-3,3.849999979E-3
2.865069290E-1,-6.104999781E-2,5.774999969E-3,7.562499959E-3
2.890126790E-1,-5.609999970E-2,2.199999988E-3,1.251249947E-2
2.915192150E-1,-3.299999982E-2,-5.087499972E-3,1.127499994E-2
2.940266000E-1,4.949999973E-3,-7.562499959E-3,8.799999952E-3
2.965330630E-1,3.918749839E-2,-5.087499972E-3,3.849999979E-3
2.990389100E-1,5.252499878E-2,-5.087499972E-3,2.749999985E-4
3.015453690E-1,5.018749833E-2,-1.003750041E-2,-9.624999948E-4
3.040527540E-1,3.671250120E-2,-1.498750038E-2,-3.437499981E-3
3.065594480E-1,2.694999985E-2,-1.127499994E-2,-2.199999988E-3
3.090650290E-1,2.076249942E-2,-7.562499959E-3,-7.149999961E-3
3.115717200E-1,1.718750037E-2,-2.749999985E-3,-7.149999961E-3
3.140791040E-1,1.594999991E-2,3.437499981E-3,-8.387500420E-3
3.165855680E-1,3.712499980E-3,9.487500414E-3,-7.149999961E-3
3.190913950E-1,-1.828750037E-2,5.774999969E-3,-3.437499981E-3
3.215978550E-1,-4.633750021E-2,2.199999988E-3,2.612499986E-3
3.241052390E-1,-6.228749827E-2,9.624999948E-4,1.003750041E-2
3.266117800E-1,-6.228749827E-2,2.199999988E-3,1.251249947E-2
3.291175590E-1,-4.028749838E-2,2.199999988E-3,1.127499994E-2
3.316240950E-1,-8.524999954E-3,-3.987499978E-3,1.003750041E-2
3.341314800E-1,2.694999985E-2,-3.987499978E-3,2.612499986E-3
3.366379440E-1,4.399999976E-2,-8.799999952E-3,2.749999985E-4
3.391437750E-1,4.647500068E-2,-1.127499994E-2,-2.199999988E-3
3.416502340E-1,3.795000166E-2,-1.498750038E-2,-9.624999948E-4
3.441576190E-1,3.176249936E-2,-7.562499959E-3,-2.199999988E-3
3.466643130E-1,2.571249940E-2,-5.087499972E-3,-4.674999975E-3
3.491699200E-1,2.447500080E-2,-2.749999985E-4,-5.912499968E-3
3.516766100E-1,2.323750034E-2,5.774999969E-3,-1.072499994E-2
3.541839940E-1,4.949999973E-3,4.674999975E-3,-5.912499968E-3
3.566904580E-1,-2.076249942E-2,4.674999975E-3,2.749999985E-4
3.591962940E-1,-5.004999787E-2,9.624999948E-4,6.324999966E-3
3.617027540E-1,-6.476250291E-2,2.199999988E-3,1.361249946E-2
3.642101380E-1,-6.476250291E-2,4.674999975E-3,1.361249946E-2
3.667166790E-1,-4.523750022E-2,9.624999948E-4,1.484999992E-2
3.692224530E-1,-9.762499481E-3,-6.324999966E-3,8.799999952E-3
3.717289900E-1,3.176249936E-2,-3.987499978E-3,3.849999979E-3
3.742363740E-1,5.252499878E-2,-1.003750041E-2,-2.199999988E-3
3.767430680E-1,5.252499878E-2,-1.374999993E-2,-3.437499981E-3
3.792486890E-1,4.399999976E-2,-1.251249947E-2,-3.437499981E-3
3.817553790E-1,3.176249936E-2,-7.562499959E-3,-4.674999975E-3
3.842625330E-1,2.818750031E-2,-2.749999985E-3,-5.912499968E-3
3.867692270E-1,2.199999988E-2,-1.512499992E-3,-1.072499994E-2
3.892748230E-1,1.718750037E-2,3.437499981E-3,-1.072499994E-2
3.917815130E-1,3.712499980E-3,8.249999955E-3,-9.487500414E-3
3.942888980E-1,-2.076249942E-2,9.487500414E-3,-3.437499981E-3
3.967954380E-1,-4.633750021E-2,2.199999988E-3,2.612499986E-3
3.993012170E-1,-6.104999781E-2,2.199999988E-3,1.003750041E-2
4.018077540E-1,-6.228749827E-2,9.624999948E-4,1.251249947E-2
4.043151380E-1,-4.523750022E-2,-1.512499992E-3,1.484999992E-2
4.068216020E-1,-1.581249945E-2,-1.512499992E-3,1.361249946E-2
4.093274380E-1,2.199999988E-2,-5.087499972E-3,8.799999952E-3
4.118338980E-1,4.647500068E-2,-8.799999952E-3,1.512499992E-3
4.143412820E-1,5.499999970E-2,-1.374999993E-2,-3.437499981E-3
4.168479770E-1,4.523750022E-2,-1.856249943E-2,-4.674999975E-3
4.193535970E-1,3.918749839E-2,-1.127499994E-2,-3.437499981E-3
4.218602870E-1,2.928750031E-2,-5.087499972E-3,-4.674999975E-3
4.243676720E-1,2.199999988E-2,-2.749999985E-4,-5.912499968E-3
4.268741360E-1,1.718750037E-2,3.437499981E-3,-5.912499968E-3
4.293800010E-1,4.949999973E-3,3.437499981E-3,-8.387500420E-3
4.318864600E-1,-1.581249945E-2,4.674999975E-3,-2.199999988E-3
4.343938450E-1,-3.781250119E-2,4.674999975E-3,1.512499992E-3
4.369003850E-1,-5.857500061E-2,3.437499981E-3,7.562499959E-3
4.394061360E-1,-6.599999964E-2,7.012499962E-3,1.127499994E-2
4.419126720E-1,-5.252499878E-2,5.774999969E-3,1.127499994E-2
4.444200570E-1,-2.076249942E-2,-1.512499992E-3,7.562499959E-3
4.469265200E-1,1.347499993E-2,-3.987499978E-3,1.512499992E-3
4.494323710E-1,4.028749838E-2,-5.087499972E-3,-9.624999948E-4
4.519388310E-1,5.128749833E-2,-8.799999952E-3,-3.437499981E-3
4.544462160E-1,4.523750022E-2,-1.251249947E-2,-4.674999975E-3
4.569529100E-1,3.795000166E-2,-8.799999952E-3,-3.437499981E-3
4.594585200E-1,3.052499890E-2,-8.799999952E-3,-5.912499968E-3
4.619652110E-1,2.694999985E-2,-2.749999985E-3,-8.387500420E-3
4.644725950E-1,1.952499896E-2,-1.512499992E-3,-1.072499994E-2
4.669790590E-1,1.471249945E-2,8.249999955E-3,-9.487500414E-3
4.694849200E-1,-1.223750040E-2,7.012499962E-3,-5.912499968E-3
4.719913790E-1,-3.904999793E-2,3.437499981E-3,1.512499992E-3
4.744987640E-1,-6.228749827E-2,-1.512499992E-3,8.799999952E-3
4.770053040E-1,-6.957499683E-2,2.199999988E-3,1.361249946E-2
4.795110880E-1,-5.981250107E-2,9.624999948E-4,1.484999992E-2
4.820175470E-1,-2.681249939E-2,-2.749999985E-4,1.361249946E-2
4.845250090E-1,8.524999954E-3,-5.087499972E-3,7.562499959E-3
4.870314720E-1,4.152499884E-2,-6.324999966E-3,3.849999979E-3
4.895373140E-1,4.895000160E-2,-1.374999993E-2,-9.624999948E-4
4.920440040E-1,4.647500068E-2,-1.732499897E-2,-2.199999988E-3
4.945513880E-1,3.918749839E-2,-1.127499994E-2,-5.912499968E-3
4.970578520E-1,3.423750028E-2,-3.987499978E-3,-8.387500420E-3
4.995634620E-1,2.818750031E-2,-2.749999985E-3,-9.487500414E-3
5.020701530E-1,2.323750034E-2,9.624999948E-4,-1.319999993E-2
5.045775370E-1,1.347499993E-2,3.437499981E-3,-8.387500420E-3
5.070840780E-1,-1.099999994E-2,5.774999969E-3,-7.149999961E-3
5.095898520E-1,-3.781250119E-2,4.674999975E-3,1.512499992E-3
5.120963880E-1,-6.104999781E-2,4.674999975E-3,8.799999952E-3
5.146037730E-1,-7.081250101E-2,5.774999969E-3,1.251249947E-2
5.171102370E-1,-6.104999781E-2,3.437499981E-3,1.251249947E-2
5.196160110E-1,-3.533750027E-2,-1.512499992E-3,1.003750041E-2
5.221225470E-1,4.949999973E-3,-1.512499992E-3,6.324999966E-3
5.246299320E-1,3.918749839E-2,-6.324999966E-3,1.512499992E-3
5.271366260E-1,5.252499878E-2,-1.127499994E-2,-3.437499981E-3
5.296422560E-1,5.252499878E-2,-1.498750038E-2,-5.912499968E-3
5.321489460E-1,4.523750022E-2,-1.374999993E-2,-8.387500420E-3
5.346563310E-1,3.423750028E-2,-7.562499959E-3,-7.149999961E-3
5.371627940E-1,2.818750031E-2,-5.087499972E-3,-7.149999961E-3
5.396686070E-1,2.323750034E-2,-3.987499978E-3,-7.149999961E-3
5.421750670E-1,1.223750040E-2,9.624999948E-4,-8.387500420E-3
5.446824510E-1,0.000000000E0,8.249999955E-3,-5.912499968E-3
5.471889150E-1,-2.681249939E-2,8.249999955E-3,2.749999985E-4
5.496947650E-1,-5.376249924E-2,9.624999948E-4,5.087499972E-3
5.522012250E-1,-7.809999585E-2,-8.799999952E-3,1.608750038E-2
5.547086860E-1,-7.809999585E-2,9.624999948E-4,1.608750038E-2
5.572151500E-1,-5.128749833E-2,5.774999969E-3,1.732499897E-2
5.597209820E-1,-3.574999981E-3,9.624999948E-4,1.251249947E-2
5.622274420E-1,3.795000166E-2,3.437499981E-3,1.512499992E-3
5.647348260E-1,5.499999970E-2,-8.799999952E-3,-8.387500420E-3
5.672412900E-1,5.252499878E-2,-1.608750038E-2,-1.319999993E-2
5.697471450E-1,4.276249930E-2,-1.251249947E-2,-8.387500420E-3
5.722538350E-1,3.795000166E-2,-6.324999966E-3,-7.149999961E-3
5.747612200E-1,3.299999982E-2,-6.324999966E-3,-4.674999975E-3
5.772676830E-1,3.176249936E-2,-3.987499978E-3,-7.149999961E-3
5.797735440E-1,2.571249940E-2,9.624999948E-4,-7.149999961E-3
5.822800040E-1,3.712499980E-3,7.012499962E-3,-4.674999975E-3
5.847873890E-1,-3.052499890E-2,7.012499962E-3,-2.199999988E-3
5.872939290E-1,-6.599999964E-2,-2.749999985E-4,3.849999979E-3
5.897997120E-1,-8.057499677E-2,5.774999969E-3,1.003750041E-2
5.923061720E-1,-7.452499866E-2,8.249999955E-3,1.251249947E-2
5.948135570E-1,-4.757500067E-2,3.437499981E-3,1.251249947E-2
5.973200970E-1,-7.287499961E-3,-2.749999985E-4,6.324999966E-3
5.998258760E-1,3.299999982E-2,-5.087499972E-3,1.512499992E-3
6.023324130E-1,5.623750016E-2,-1.251249947E-2,-3.437499981E-3
6.048397970E-1,5.747500062E-2,-1.374999993E-2,-4.674999975E-3
6.073464920E-1,4.647500068E-2,-1.608750038E-2,-3.437499981E-3
6.098521270E-1,3.671250120E-2,-8.799999952E-3,-2.199999988E-3
6.123588170E-1,3.299999982E-2,-3.987499978E-3,-4.674999975E-3
6.148662020E-1,2.818750031E-2,-5.087499972E-3,-9.487500414E-3
6.173727420E-1,2.447500080E-2,-1.512499992E-3,-9.487500414E-3
6.198784980E-1,6.187499966E-3,2.199999988E-3,-9.487500414E-3
6.223850340E-1,-1.952499896E-2,9.487500414E-3,-2.199999988E-3
6.248924190E-1,-5.252499878E-2,7.012499962E-3,5.087499972E-3
6.273988820E-1,-7.204999775E-2,8.249999955E-3,8.799999952E-3
6.299046560E-1,-7.328750193E-2,2.199999988E-3,1.251249947E-2
6.324111920E-1,-5.252499878E-2,2.199999988E-3,8.799999952E-3
6.349185770E-1,-1.471249945E-2,-1.512499992E-3,8.799999952E-3
6.374250400E-1,2.323750034E-2,-2.749999985E-4,3.849999979E-3
6.399308860E-1,4.895000160E-2,-1.512499992E-3,2.749999985E-4
6.424373460E-1,5.004999787E-2,-1.127499994E-2,-4.674999975E-3
6.449447300E-1,4.152499884E-2,-1.608750038E-2,-5.912499968E-3
6.474514250E-1,3.299999982E-2,-1.374999993E-2,-3.437499981E-3
6.499572710E-1,2.804999985E-2,-6.324999966E-3,-4.674999975E-3
6.524637410E-1,2.694999985E-2,-2.749999985E-4,-4.674999975E-3
6.549711250E-1,2.447500080E-2,5.774999969E-3,-7.149999961E-3
6.574775890E-1,1.347499993E-2,5.774999969E-3,-5.912499968E-3
6.599834350E-1,-1.471249945E-2,2.199999988E-3,-3.437499981E-3
6.624899130E-1,-4.757500067E-2,-2.749999985E-4,2.749999985E-4
6.649972980E-1,-6.957499683E-2,4.674999975E-3,8.799999952E-3
6.675038380E-1,-7.204999775E-2,9.487500414E-3,1.127499994E-2
6.700096080E-1,-5.857500061E-2,7.012499962E-3,1.251249947E-2
6.725161390E-1,-2.076249942E-2,2.199999988E-3,8.799999952E-3
6.750235240E-1,1.952499896E-2,-6.324999966E-3,3.849999979E-3
6.775299870E-1,4.523750022E-2,-6.324999966E-3,2.749999985E-4
6.800358340E-1,5.623750016E-2,-7.562499959E-3,-4.674999975E-3
6.825423030E-1,5.128749833E-2,-1.251249947E-2,-4.674999975E-3
6.850496880E-1,4.152499884E-2,-1.251249947E-2,-7.149999961E-3
6.875563820E-1,3.176249936E-2,-7.562499959E-3,-7.149999961E-3
6.900619970E-1,2.447500080E-2,-7.562499959E-3,-9.487500414E-3
6.925686830E-1,2.199999988E-2,-1.512499992E-3,-9.487500414E-3
6.950760670E-1,1.471249945E-2,8.249999955E-3,-7.149999961E-3
6.975826080E-1,-1.099999994E-2,1.196249947E-2,-4.674999975E-3
7.000883770E-1,-4.399999976E-2,7.012499962E-3,1.512499992E-3
7.025949420E-1,-6.833750010E-2,4.674999975E-3,5.087499972E-3
7.051022500E-1,-7.823749632E-2,4.674999975E-3,1.003750041E-2
7.076087910E-1,-6.599999964E-2,3.437499981E-3,1.361249946E-2
7.101145600E-1,-2.804999985E-2,-2.749999985E-4,1.251249947E-2
7.126211150E-1,1.594999991E-2,-3.987499978E-3,8.799999952E-3
7.151285000E-1,5.004999787E-2,-6.324999966E-3,3.849999979E-3
7.176351940E-1,5.981250107E-2,-1.608750038E-2,2.749999985E-4
7.201408100E-1,5.252499878E-2,-1.732499897E-2,2.749999985E-4
7.226475000E-1,4.028749838E-2,-1.498750038E-2,-2.199999988E-3
7.251548850E-1,3.423750028E-2,-5.087499972E-3,-4.674999975E-3
7.276613480E-1,2.447500080E-2,-1.512499992E-3,-8.387500420E-3
7.301669640E-1,1.952499896E-2,9.624999948E-4,-1.072499994E-2
7.326736450E-1,1.099999994E-2,8.249999955E-3,-1.072499994E-2
7.351810290E-1,-1.347499993E-2,8.249999955E-3,-7.149999961E-3
7.376875700E-1,-4.523750022E-2,8.249999955E-3,2.612499986E-3
7.401933390E-1,-6.723749638E-2,7.012499962E-3,7.562499959E-3
7.426998760E-1,-7.081250101E-2,5.774999969E-3,1.127499994E-2
7.452072600E-1,-5.623750016E-2,2.199999988E-3,1.003750041E-2
7.477137240E-1,-2.681249939E-2,-1.512499992E-3,8.799999952E-3
7.502195700E-1,1.223750040E-2,-3.987499978E-3,5.087499972E-3
7.527260300E-1,4.523750022E-2,-2.749999985E-3,1.512499992E-3
7.552334140E-1,5.499999970E-2,-8.799999952E-3,1.512499992E-3
7.577401080E-1,4.647500068E-2,-1.979999989E-2,-3.437499981E-3
7.602457240E-1,3.904999793E-2,-1.856249943E-2,-3.437499981E-3
7.627524180E-1,3.299999982E-2,-1.003750041E-2,-4.674999975E-3
7.652598030E-1,2.928750031E-2,-1.512499992E-3,-7.149999961E-3
7.677662660E-1,2.199999988E-2,4.674999975E-3,-8.387500420E-3
7.702721120E-1,1.347499993E-2,1.072499994E-2,-8.387500420E-3
7.727785570E-1,-6.049999967E-3,9.487500414E-3,-5.912499968E-3
7.752859420E-1,-3.423750028E-2,4.674999975E-3,-2.199999988E-3
7.777924820E-1,-5.376249924E-2,-2.749999985E-4,3.849999979E-3
7.802982510E-1,-6.599999964E-2,3.437499981E-3,8.799999952E-3
7.828048070E-1,-6.104999781E-2,3.437499981E-3,1.361249946E-2
7.853121910E-1,-3.547500074E-2,2.199999988E-3,1.608750038E-2
7.878186550E-1,-2.474999987E-3,-2.749999985E-4,1.361249946E-2
7.903245010E-1,3.052499890E-2,-7.562499959E-3,7.562499959E-3
7.928309750E-1,4.523750022E-2,-1.498750038E-2,2.749999985E-4
7.953383590E-1,5.004999787E-2,-2.103750035E-2,-3.437499981E-3
7.978450540E-1,4.399999976E-2,-1.498750038E-2,-3.437499981E-3
8.003506690E-1,3.795000166E-2,-8.799999952E-3,-2.199999988E-3
8.028573790E-1,3.423750028E-2,2.199999988E-3,-5.912499968E-3
8.053647640E-1,2.447500080E-2,3.437499981E-3,-8.387500420E-3
8.078712270E-1,1.594999991E-2,3.437499981E-3,-1.072499994E-2
8.103770740E-1,-1.237499993E-3,3.437499981E-3,-9.487500414E-3
8.128835280E-1,-3.052499890E-2,2.199999988E-3,-2.199999988E-3
8.153909130E-1,-5.376249924E-2,4.674999975E-3,5.087499972E-3
8.178974530E-1,-6.723749638E-2,7.012499962E-3,1.251249947E-2
8.204032230E-1,-6.723749638E-2,1.072499994E-2,1.608750038E-2
8.229097590E-1,-4.523750022E-2,-2.749999985E-4,1.361249946E-2
8.254171440E-1,-9.762499481E-3,-7.562499959E-3,1.003750041E-2
8.279238380E-1,2.928750031E-2,-1.251249947E-2,5.087499972E-3
8.304294530E-1,5.128749833E-2,-1.251249947E-2,-9.624999948E-4
8.329361530E-1,5.376249924E-2,-1.127499994E-2,-2.199999988E-3
8.354433060E-1,4.647500068E-2,-6.324999966E-3,-2.199999988E-3
8.379500840E-1,3.423750028E-2,-3.987499978E-3,-3.437499981E-3
8.404568890E-1,2.447500080E-2,-6.324999966E-3,-8.387500420E-3
8.429622950E-1,2.323750034E-2,-5.087499972E-3,-1.072499994E-2
8.454696770E-1,2.076249942E-2,5.774999969E-3,-1.319999993E-2
8.479762180E-1,6.187499966E-3,9.487500414E-3,-8.387500420E-3
8.504819870E-1,-2.076249942E-2,7.012499962E-3,1.512499992E-3
8.529884940E-1,-4.757500067E-2,2.199999988E-3,6.324999966E-3
8.554958790E-1,-6.352499872E-2,9.624999948E-4,1.361249946E-2
8.580023420E-1,-6.352499872E-2,-2.749999985E-4,1.608750038E-2
8.605081890E-1,-4.523750022E-2,-3.987499978E-3,1.608750038E-2
8.630146530E-1,-1.471249945E-2,-5.087499972E-3,1.484999992E-2
8.655220380E-1,1.952499896E-2,-2.749999985E-3,8.799999952E-3
8.680287320E-1,4.399999976E-2,-5.087499972E-3,3.849999979E-3
8.705343470E-1,4.771250114E-2,-1.374999993E-2,-2.199999988E-3
8.730410180E-1,4.152499884E-2,-1.732499897E-2,-2.199999988E-3
8.755484020E-1,3.795000166E-2,-1.003750041E-2,-5.912499968E-3
8.780548660E-1,3.547500074E-2,-3.987499978E-3,-9.487500414E-3
8.805607120E-1,2.928750031E-2,2.199999988E-3,-1.072499994E-2
8.830671920E-1,2.323750034E-2,4.674999975E-3,-1.196249947E-2
8.855745760E-1,7.287499961E-3,9.487500414E-3,-8.387500420E-3
8.880811170E-1,-1.828750037E-2,5.774999969E-3,-4.674999975E-3
8.905868860E-1,-4.757500067E-2,9.624999948E-4,3.849999979E-3
8.930934170E-1,-6.833750010E-2,7.012499962E-3,8.799999952E-3
8.956008020E-1,-7.081250101E-2,9.487500414E-3,1.361249946E-2
8.981072660E-1,-5.376249924E-2,3.437499981E-3,1.484999992E-2
9.006131120E-1,-1.828750037E-2,-2.749999985E-3,1.003750041E-2
9.031195370E-1,1.718750037E-2,-3.987499978E-3,7.562499959E-3
9.056269220E-1,4.276249930E-2,-8.799999952E-3,1.512499992E-3
9.081336160E-1,5.004999787E-2,-1.251249947E-2,-9.624999948E-4
9.106392320E-1,4.771250114E-2,-1.251249947E-2,-4.674999975E-3
9.131459220E-1,4.647500068E-2,-1.003750041E-2,-8.387500420E-3
9.156533070E-1,4.399999976E-2,-6.324999966E-3,-9.487500414E-3
9.181597700E-1,3.547500074E-2,-5.087499972E-3,-9.487500414E-3
9.206656160E-1,2.804999985E-2,-2.749999985E-4,-9.487500414E-3
9.231720660E-1,9.762499481E-3,4.674999975E-3,-4.674999975E-3
9.256794500E-1,-1.471249945E-2,1.196249947E-2,2.749999985E-4
9.281859910E-1,-4.399999976E-2,7.012499962E-3,3.849999979E-3
9.306917600E-1,-6.833750010E-2,2.199999988E-3,8.799999952E-3
9.331982970E-1,-7.576250285E-2,9.624999948E-4,1.484999992E-2
9.357056040E-1,-6.104999781E-2,2.199999988E-3,1.608750038E-2
9.382121450E-1,-3.052499890E-2,-2.749999985E-4,1.484999992E-2
9.407179140E-1,8.524999954E-3,2.199999988E-3,7.562499959E-3
9.432244470E-1,3.795000166E-2,-1.512499992E-3,1.512499992E-3
9.457318310E-1,4.895000160E-2,-1.374999993E-2,-5.912499968E-3
9.482385250E-1,4.895000160E-2,-1.979999989E-2,-8.387500420E-3
9.507441410E-1,4.647500068E-2,-1.498750038E-2,-7.149999961E-3
9.532508110E-1,4.399999976E-2,-2.749999985E-3,-7.149999961E-3
9.557581960E-1,3.795000166E-2,2.199999988E-3,-8.387500420E-3
9.582647360E-1,3.052499890E-2,9.624999948E-4,-1.072499994E-2
9.607705050E-1,1.347499993E-2,2.199999988E-3,-1.196249947E-2
9.632770330E-1,-1.099999994E-2,3.437499981E-3,-5.912499968E-3
9.657843410E-1,-4.399999976E-2,9.624999948E-4,2.749999985E-4
9.682908810E-1,-6.833750010E-2,4.674999975E-3,1.127499994E-2
9.707966500E-1,-7.576250285E-2,9.487500414E-3,1.608750038E-2
9.733031820E-1,-6.957499683E-2,2.199999988E-3,1.856249943E-2
9.758105660E-1,-3.904999793E-2,-3.987499978E-3,1.608750038E-2
9.783170300E-1,1.237499993E-3,-3.987499978E-3,8.799999952E-3
9.808228760E-1,3.795000166E-2,-2.749999985E-3,-9.624999948E-4
9.833295520E-1,5.499999970E-2,-7.562499959E-3,-7.149999961E-3
9.858369370E-1,5.623750016E-2,-1.127499994E-2,-8.387500420E-3
9.883434010E-1,5.252499878E-2,-1.374999993E-2,-9.487500414E-3
9.908492470E-1,4.647500068E-2,-1.003750041E-2,-9.487500414E-3
9.933557060E-1,4.152499884E-2,-7.562499959E-3,-1.072499994E-2
9.958630910E-1,3.299999982E-2,-2.749999985E-4,-1.072499994E-2
9.983696310E-1,1.828750037E-2,3.437499981E-3,-7.149999961E-3
1.000875401E0,-9.762499481E-3,7.012499962E-3,-3.437499981E-3
1.003381864E0,-4.152499884E-2,5.774999969E-3,3.849999979E-3
1.005889326E0,-6.833750010E-2,4.674999975E-3,7.562499959E-3
1.008395789E0,-7.576250285E-2,3.437499981E-3,1.127499994E-2
1.010901635E0,-6.833750010E-2,5.774999969E-3,1.361249946E-2
1.013408115E0,-4.152499884E-2,4.674999975E-3,1.003750041E-2
1.015915500E0,-4.812499974E-3,3.437499981E-3,7.562499959E-3
1.018422194E0,2.804999985E-2,2.199999988E-3,2.749999985E-4
1.020927809E0,4.647500068E-2,-2.749999985E-3,-3.437499981E-3
1.023434504E0,4.895000160E-2,-1.608750038E-2,-5.912499968E-3
1.025941888E0,5.004999787E-2,-1.979999989E-2,-7.149999961E-3
1.028448352E0,5.376249924E-2,-1.251249947E-2,-8.387500420E-3
1.030954198E0,4.647500068E-2,-5.087499972E-3,-9.487500414E-3
1.033460652E0,3.547500074E-2,-2.749999985E-3,-9.487500414E-3
1.035968037E0,1.828750037E-2,3.437499981E-3,-7.149999961E-3
1.038474578E0,-7.287499961E-3,4.674999975E-3,-3.437499981E-3
1.040980347E0,-3.781250119E-2,5.774999969E-3,2.749999985E-4
1.043486864E0,-6.833750010E-2,2.199999988E-3,2.612499986E-3
1.045994172E0,-7.933750004E-2,8.249999955E-3,1.003750041E-2
1.048500712E0,-7.204999775E-2,8.249999955E-3,8.799999952E-3
1.051006482E0,-4.881250113E-2,3.437499981E-3,1.251249947E-2
1.053513018E0,-1.099999994E-2,-2.749999985E-4,8.799999952E-3
1.056020403E0,2.804999985E-2,-2.749999985E-4,2.612499986E-3
1.058526866E0,5.128749833E-2,-3.987499978E-3,-3.437499981E-3
1.061032712E0,5.623750016E-2,-1.498750038E-2,-9.487500414E-3
1.063539167E0,5.747500062E-2,-1.732499897E-2,-9.487500414E-3
1.066046782E0,5.004999787E-2,-1.251249947E-2,-1.072499994E-2
1.068553246E0,4.276249930E-2,-3.987499978E-3,-8.387500420E-3
1.071059092E0,3.547500074E-2,-1.512499992E-3,-8.387500420E-3
1.073565547E0,2.199999988E-2,9.624999948E-4,-8.387500420E-3
1.076072931E0,3.712499980E-3,5.774999969E-3,-7.149999961E-3
1.078579472E0,-2.928750031E-2,9.487500414E-3,-3.437499981E-3
1.081085241E0,-5.981250107E-2,5.774999969E-3,1.512499992E-3
1.083591759E0,-7.823749632E-2,5.774999969E-3,6.324999966E-3
1.086099144E0,-7.576250285E-2,9.487500414E-3,1.003750041E-2
1.088605608E0,-5.857500061E-2,3.437499981E-3,1.361249946E-2
1.091111454E0,-2.323750034E-2,-1.512499992E-3,1.127499994E-2
1.093618144E0,1.594999991E-2,-1.512499992E-3,8.799999952E-3
1.096125298E0,4.152499884E-2,-3.987499978E-3,2.749999985E-4
1.098631992E0,5.252499878E-2,-1.498750038E-2,-3.437499981E-3
1.101137608E0,5.004999787E-2,-1.979999989E-2,-5.912499968E-3
1.103644298E0,4.771250114E-2,-1.608750038E-2,-5.912499968E-3
1.106151683E0,4.523750022E-2,-8.799999952E-3,-5.912499968E-3
1.108658223E0,4.028749838E-2,-2.749999985E-4,-9.487500414E-3
1.111163992E0,2.928750031E-2,4.674999975E-3,-1.196249947E-2
1.113670447E0,1.099999994E-2,7.012499962E-3,-1.196249947E-2
1.116177831E0,-1.952499896E-2,4.674999975E-3,-8.387500420E-3
1.118684372E0,-5.252499878E-2,7.012499962E-3,1.512499992E-3
1.121190141E0,-7.823749632E-2,8.249999955E-3,8.799999952E-3
1.123696678E0,-8.428750187E-2,1.196249947E-2,1.361249946E-2
1.126204062E0,-6.957499683E-2,5.774999969E-3,1.361249946E-2
1.128710526E0,-3.409999982E-2,9.624999948E-4,1.237499993E-2
1.131216372E0,8.662499487E-3,-5.224999972E-3,6.324999966E-3
1.133723062E0,4.166249931E-2,-5.224999972E-3,1.374999993E-3
1.136230206E0,5.499999970E-2,-1.003750041E-2,-2.199999988E-3
1.138736900E0,5.623750016E-2,-1.856249943E-2,-7.149999961E-3
1.141242747E0,5.266249925E-2,-1.622499898E-2,-7.149999961E-3
1.143749206E0,4.895000160E-2,-1.003750041E-2,-1.072499994E-2
1.146256619E0,4.276249930E-2,-1.512499992E-3,-1.196249947E-2
1.148763082E0,3.066249937E-2,5.774999969E-3,-1.196249947E-2
1.151268928E0,1.099999994E-2,9.487500414E-3,-9.487500414E-3
1.153775388E0,-1.704999991E-2,1.196249947E-2,-4.674999975E-3
1.156282778E0,-5.362499878E-2,5.774999969E-3,2.749999985E-4
1.158789318E0,-7.809999585E-2,3.437499981E-3,6.324999966E-3
1.161295087E0,-8.538749814E-2,5.774999969E-3,1.237499993E-2
1.163801624E0,-7.081250101E-2,3.437499981E-3,1.608750038E-2
1.166309018E0,-3.781250119E-2,-1.512499992E-3,1.732499897E-2
1.168815482E0,4.949999973E-3,-1.512499992E-3,1.361249946E-2
1.171321328E0,4.042499885E-2,-8.799999952E-3,7.562499959E-3
1.173827788E0,5.623750016E-2,-1.374999993E-2,-9.624999948E-4
1.176335398E0,5.499999970E-2,-1.979999989E-2,-3.437499981E-3
1.178841862E0,5.142499879E-2,-1.622499898E-2,-5.912499968E-3
1.181347708E0,4.771250114E-2,-8.799999952E-3,-8.387500420E-3
1.183854167E0,4.276249930E-2,-2.749999985E-4,-1.196249947E-2
1.186361542E0,3.423750028E-2,3.437499981E-3,-1.319999993E-2
1.188868082E0,1.594999991E-2,5.774999969E-3,-1.319999993E-2
1.191373852E0,-1.086249948E-2,9.487500414E-3,-9.487500414E-3
1.193880388E0,-4.633750021E-2,7.012499962E-3,-2.199999988E-3
1.196387701E0,-6.957499683E-2,1.072499994E-2,7.562499959E-3
1.198894241E0,-8.181250095E-2,1.072499994E-2,1.237499993E-2
1.201400011E0,-7.204999775E-2,4.674999975E-3,1.856249943E-2
1.203906778E0,-4.262499884E-2,-5.224999972E-3,1.484999992E-2
1.206413932E0,-2.337499987E-3,-5.224999972E-3,1.237499993E-2
1.208920626E0,3.423750028E-2,-3.987499978E-3,5.087499972E-3
1.211426241E0,5.376249924E-2,-6.324999966E-3,-2.199999988E-3
1.213932932E0,5.376249924E-2,-1.498750038E-2,-3.437499981E-3
1.216440316E0,4.895000160E-2,-1.856249943E-2,-5.912499968E-3
1.218946857E0,4.399999976E-2,-1.251249947E-2,-7.149999961E-3
1.221452626E0,3.918749839E-2,-2.749999985E-3,-7.149999961E-3
1.223959085E0,3.299999982E-2,3.437499981E-3,-8.387500420E-3
1.226466470E0,2.323750034E-2,7.012499962E-3,-9.487500414E-3
1.228973011E0,4.949999973E-3,8.249999955E-3,-9.487500414E-3
1.231478780E0,-2.681249939E-2,9.624999948E-4,-2.199999988E-3
1.233985316E0,-5.733750015E-2,2.199999988E-3,6.324999966E-3
1.236492688E0,-7.686249912E-2,4.674999975E-3,1.484999992E-2
1.238999151E0,-7.809999585E-2,9.487500414E-3,1.856249943E-2
1.241504998E0,-5.362499878E-2,2.199999988E-3,1.856249943E-2
1.244011457E0,-1.333750039E-2,-3.987499978E-3,1.237499993E-2
1.246518874E0,2.942499891E-2,-5.224999972E-3,2.612499986E-3
1.249025568E0,4.771250114E-2,-7.562499959E-3,1.374999993E-3
1.251531183E0,4.771250114E-2,-1.127499994E-2,-3.437499981E-3
1.254037874E0,4.042499885E-2,-1.622499898E-2,-3.437499981E-3
1.256545269E0,3.918749839E-2,-8.799999952E-3,-4.674999975E-3
1.259051733E0,4.276249930E-2,9.624999948E-4,-8.387500420E-3
1.261557579E0,4.276249930E-2,9.624999948E-4,-1.319999993E-2
1.264064039E0,3.423750028E-2,9.624999948E-4,-1.691249944E-2
1.266571413E0,1.099999994E-2,7.012499962E-3,-9.487500414E-3
1.269077954E0,-2.681249939E-2,8.249999955E-3,-2.199999988E-3
1.271583723E0,-6.352499872E-2,7.012499962E-3,7.562499959E-3
1.274090259E0,-8.428750187E-2,7.012499962E-3,1.361249946E-2
1.276597644E0,-7.933750004E-2,3.437499981E-3,1.732499897E-2
1.279104108E0,-5.486249924E-2,-2.749999985E-4,1.979999989E-2
1.281609954E0,-1.704999991E-2,-3.987499978E-3,1.361249946E-2
1.284116413E0,2.323750034E-2,-6.324999966E-3,1.127499994E-2
1.286623789E0,4.771250114E-2,-8.799999952E-3,2.612499986E-3
1.289130483E0,5.623750016E-2,-1.374999993E-2,-2.199999988E-3
1.291636099E0,5.142499879E-2,-1.622499898E-2,-5.912499968E-3
1.294142789E0,4.523750022E-2,-1.127499994E-2,-9.487500414E-3
1.296650198E0,4.166249931E-2,-6.324999966E-3,-8.387500420E-3
1.299156738E0,3.671250120E-2,-1.512499992E-3,-1.072499994E-2
1.301662507E0,3.189999983E-2,8.249999955E-3,-1.196249947E-2
1.304168967E0,1.099999994E-2,9.487500414E-3,-1.072499994E-2
1.306676336E0,-2.076249942E-2,7.012499962E-3,-7.149999961E-3
1.309182877E0,-5.362499878E-2,3.437499981E-3,2.612499986E-3
1.311688646E0,-7.686249912E-2,7.012499962E-3,1.003750041E-2
1.314195183E0,-7.933750004E-2,7.012499962E-3,1.732499897E-2
1.316702548E0,-6.104999781E-2,9.624999948E-4,1.732499897E-2
1.319209243E0,-2.557500079E-2,-6.324999966E-3,1.732499897E-2
1.321714858E0,1.471249945E-2,-7.562499959E-3,1.237499993E-2
1.324221548E0,4.399999976E-2,-6.324999966E-3,2.612499986E-3
1.326728952E0,5.499999970E-2,-1.251249947E-2,-3.437499981E-3
1.329235415E0,5.266249925E-2,-1.498750038E-2,-8.387500420E-3
1.331741031E0,4.276249930E-2,-1.127499994E-2,-8.387500420E-3
1.334247721E0,3.066249937E-2,-5.224999972E-3,-7.149999961E-3
1.336755096E0,2.323750034E-2,9.624999948E-4,-8.387500420E-3
1.339261636E0,1.966249943E-2,5.774999969E-3,-8.387500420E-3
1.341767405E0,1.594999991E-2,9.487500414E-3,-1.072499994E-2
1.344273942E0,-1.099999994E-3,1.072499994E-2,-8.387500420E-3
1.346781327E0,-3.533750027E-2,3.437499981E-3,-9.624999948E-4
1.349287790E0,-6.462500244E-2,-2.749999985E-3,7.562499959E-3
1.351793636E0,-7.809999585E-2,9.624999948E-4,1.484999992E-2
1.354300096E0,-6.586249918E-2,5.774999969E-3,1.732499897E-2
1.356807495E0,-2.681249939E-2,2.199999988E-3,1.608750038E-2
1.359314190E0,1.471249945E-2,-5.224999972E-3,1.003750041E-2
1.361819805E0,3.918749839E-2,-1.251249947E-2,3.849999979E-3
1.364326495E0,4.399999976E-2,-1.374999993E-2,-3.437499981E-3
1.366833885E0,4.042499885E-2,-1.512499992E-3,-3.437499981E-3
1.369340349E0,3.671250120E-2,2.199999988E-3,-5.912499968E-3
1.371846195E0,3.066249937E-2,-6.324999966E-3,-1.072499994E-2
1.374352654E0,3.066249937E-2,-1.979999989E-2,-1.319999993E-2
1.376860043E0,3.423750028E-2,-8.799999952E-3,-1.319999993E-2
1.379366583E0,3.423750028E-2,1.196249947E-2,-9.487500414E-3
1.381872353E0,1.099999994E-2,1.677500084E-2,-2.199999988E-3
1.384378889E0,-3.286249936E-2,9.487500414E-3,3.849999979E-3
1.386886298E0,-6.833750010E-2,-2.749999985E-4,5.087499972E-3
1.389392761E0,-8.181250095E-2,-2.749999985E-3,8.799999952E-3
1.391898607E0,-7.081250101E-2,3.437499981E-3,1.237499993E-2
1.394405067E0,-3.904999793E-2,7.012499962E-3,1.484999992E-2
1.396912462E0,-1.099999994E-3,2.199999988E-3,1.237499993E-2
1.399419156E0,3.299999982E-2,-1.512499992E-3,7.562499959E-3
1.401924771E0,4.771250114E-2,-1.374999993E-2,2.749999985E-4
1.404431462E0,4.895000160E-2,-2.474999987E-2,-4.674999975E-3
1.406938817E0,4.523750022E-2,-1.732499897E-2,-8.387500420E-3
1.409445358E0,4.399999976E-2,-2.749999985E-3,-9.487500414E-3
1.411951127E0,4.166249931E-2,5.774999969E-3,-1.196249947E-2
1.414457586E0,3.423750028E-2,5.774999969E-3,-1.814999990E-2
1.416964976E0,2.447500080E-2,5.774999969E-3,-1.938750036E-2
1.419471517E0,3.712499980E-3,9.624999948E-4,-1.443750039E-2
1.421977286E0,-2.804999985E-2,3.437499981E-3,-2.199999988E-3
1.424483822E0,-6.352499872E-2,7.012499962E-3,1.003750041E-2
1.426991202E0,-9.157499671E-2,9.487500414E-3,2.337500080E-2
1.429497896E0,-9.033749998E-2,2.199999988E-3,2.461249940E-2
1.432003512E0,-5.486249924E-2,-7.562499959E-3,2.103750035E-2
1.434510202E0,1.237499993E-3,-1.251249947E-2,1.361249946E-2
1.437017592E0,4.647500068E-2,-3.987499978E-3,1.374999993E-3
1.439524055E0,6.971249729E-2,-1.512499992E-3,-8.387500420E-3
1.442029670E0,6.242499873E-2,-1.251249947E-2,-1.443750039E-2
1.444536361E0,4.771250114E-2,-1.498750038E-2,-1.691249944E-2
1.447043745E0,3.189999983E-2,-7.562499959E-3,-1.567500085E-2
1.449550286E0,3.189999983E-2,2.199999988E-3,-1.814999990E-2
1.452056055E0,3.423750028E-2,7.012499962E-3,-1.567500085E-2
1.454562592E0,2.571249940E-2,9.487500414E-3,-1.319999993E-2
1.457069880E0,1.237499993E-3,9.487500414E-3,-8.387500420E-3
1.459576421E0,-3.657500073E-2,5.774999969E-3,-3.437499981E-3
1.462082190E0,-6.710000336E-2,-1.512499992E-3,7.562499959E-3
1.464588726E0,-8.181250095E-2,-2.749999985E-4,1.484999992E-2
1.467096120E0,-7.204999775E-2,2.199999988E-3,1.732499897E-2
1.469602814E0,-4.386249930E-2,-1.512499992E-3,1.856249943E-2
1.472108430E0,-6.049999967E-3,-1.512499992E-3,1.484999992E-2
1.474615120E0,3.299999982E-2,-1.512499992E-3,6.324999966E-3
1.477122505E0,5.018749833E-2,-7.562499959E-3,-3.437499981E-3
1.479628968E0,5.266249925E-2,-1.856249943E-2,-1.072499994E-2
1.482134814E0,4.895000160E-2,-1.498750038E-2,-9.487500414E-3
1.484641274E0,4.399999976E-2,-6.324999966E-3,-1.072499994E-2
1.487148630E0,3.299999982E-2,-2.749999985E-4,-8.387500420E-3
1.489655093E0,2.818750031E-2,3.437499981E-3,-1.072499994E-2
1.492160939E0,1.842499897E-2,3.437499981E-3,-1.196249947E-2
1.494667399E0,-1.099999994E-3,4.674999975E-3,-9.487500414E-3
1.497174903E0,-2.928750031E-2,3.437499981E-3,-3.437499981E-3
1.499681367E0,-5.609999970E-2,7.012499962E-3,5.087499972E-3
1.502187213E0,-7.328750193E-2,8.249999955E-3,1.127499994E-2
1.504693673E0,-7.204999775E-2,1.196249947E-2,1.361249946E-2
1.507201048E0,-5.362499878E-2,3.437499981E-3,1.361249946E-2
1.509707743E0,-1.828750037E-2,-5.224999972E-3,7.562499959E-3
1.512213358E0,2.571249940E-2,-6.324999966E-3,1.374999993E-3
1.514720048E0,5.499999970E-2,-6.324999966E-3,-4.674999975E-3
1.517227414E0,6.118749827E-2,-1.127499994E-2,-5.912499968E-3
1.519733877E0,4.647500068E-2,-1.003750041E-2,-7.149999961E-3
1.522239724E0,3.547500074E-2,-8.799999952E-3,-4.674999975E-3
1.524746183E0,2.942499891E-2,-1.003750041E-2,-7.149999961E-3
1.527253582E0,2.323750034E-2,-3.987499978E-3,-9.487500414E-3
1.529760122E0,1.966249943E-2,3.437499981E-3,-8.387500420E-3
1.532265891E0,7.424999960E-3,1.196249947E-2,-9.487500414E-3
1.534772428E0,-1.581249945E-2,1.072499994E-2,-3.437499981E-3
1.537279808E0,-4.757500067E-2,5.774999969E-3,2.749999985E-4
1.539786502E0,-6.833750010E-2,9.624999948E-4,6.324999966E-3
1.542292117E0,-7.438749820E-2,2.199999988E-3,1.237499993E-2
1.544798808E0,-5.733750015E-2,9.624999948E-4,1.361249946E-2
1.547306173E0,-2.309999987E-2,9.624999948E-4,1.732499897E-2
1.549812637E0,1.347499993E-2,9.624999948E-4,1.127499994E-2
1.552318483E0,4.166249931E-2,-1.003750041E-2,5.087499972E-3
1.554824942E0,5.018749833E-2,-1.622499898E-2,-3.437499981E-3
1.557332336E0,4.895000160E-2,-2.227500081E-2,-8.387500420E-3
1.559838877E0,3.918749839E-2,-1.127499994E-2,-7.149999961E-3
1.562344646E0,3.189999983E-2,9.624999948E-4,-8.387500420E-3
1.564851182E0,3.066249937E-2,1.072499994E-2,-1.072499994E-2
1.567358490E0,2.447500080E-2,1.553750038E-2,-1.814999990E-2
1.569865030E0,9.899999946E-3,2.199999988E-3,-1.814999990E-2
1.572370800E0,-1.704999991E-2,-1.251249947E-2,-1.072499994E-2
1.574877336E0,-4.262499884E-2,3.437499981E-3,2.749999985E-4
1.577384706E0,-5.981250107E-2,1.801249944E-2,1.484999992E-2
1.579891169E0,-8.428750187E-2,1.677500084E-2,2.584999986E-2
1.582397015E0,-8.057499677E-2,1.072499994E-2,2.103750035E-2
1.584903475E0,-4.262499884E-2,-2.227500081E-2,1.732499897E-2
1.587411104E0,9.899999946E-3,-2.598750032E-2,1.003750041E-2
1.589917568E0,5.623750016E-2,-3.987499978E-3,2.749999985E-4
1.592423414E0,7.095000148E-2,2.199999988E-3,-4.674999975E-3
1.594929874E0,6.476250291E-2,3.437499981E-3,-9.487500414E-3
1.597437273E0,4.523750022E-2,-2.749999985E-4,-1.443750039E-2
1.599943737E0,2.694999985E-2,-1.622499898E-2,-1.319999993E-2
1.602449583E0,1.966249943E-2,-1.856249943E-2,-1.196249947E-2
1.604956042E0,2.942499891E-2,-3.987499978E-3,-7.149999961E-3
1.607463523E0,2.818750031E-2,5.774999969E-3,2.612499986E-3
1.609969987E0,-2.337499987E-3,1.924999990E-2,3.849999979E-3
1.612475756E0,-4.509999976E-2,8.249999955E-3,8.799999952E-3
1.614982292E0,-7.562500238E-2,2.199999988E-3,7.562499959E-3
1.617489677E0,-8.538749814E-2,4.674999975E-3,5.087499972E-3
1.619996371E0,-7.081250101E-2,4.674999975E-3,5.087499972E-3
1.622501987E0,-3.781250119E-2,3.437499981E-3,8.799999952E-3
1.625008677E0,4.812499974E-3,3.437499981E-3,1.127499994E-2
1.627515817E0,3.671250120E-2,-3.987499978E-3,8.799999952E-3
1.630022588E0,5.128749833E-2,-1.732499897E-2,7.562499959E-3
1.632528126E0,5.747500062E-2,-2.474999987E-2,-9.624999948E-4
1.635034817E0,5.747500062E-2,-2.103750035E-2,-2.199999988E-3
1.637542201E0,5.128749833E-2,-6.324999966E-3,-7.149999961E-3
1.640048742E0,3.671250120E-2,4.674999975E-3,-1.196249947E-2
1.642554511E0,2.076249942E-2,7.012499962E-3,-1.443750039E-2
1.645061048E0,2.474999987E-3,7.012499962E-3,-1.567500085E-2
1.647568436E0,-1.828750037E-2,5.912499968E-3,-9.487500414E-3
1.650075131E0,-4.399999976E-2,5.912499968E-3,2.749999985E-4
1.652580746E0,-6.476250291E-2,1.072499994E-2,1.127499994E-2
1.655087205E0,-7.328750193E-2,1.072499994E-2,1.979999989E-2
1.657594561E0,-6.599999964E-2,5.912499968E-3,1.979999989E-2
1.660101255E0,-3.547500074E-2,-5.087499972E-3,1.484999992E-2
1.662606871E0,7.287499961E-3,-1.251249947E-2,7.562499959E-3
1.665113561E0,4.399999976E-2,-8.799999952E-3,2.612499986E-3
1.667620975E0,5.623750016E-2,-1.498750038E-2,2.612499986E-3
1.670127438E0,5.004999787E-2,-1.374999993E-2,1.512499992E-3
1.672633284E0,4.276249930E-2,-7.562499959E-3,-2.199999988E-3
1.675139744E0,3.781250119E-2,-6.324999966E-3,-5.912499968E-3
1.677647124E0,3.671250120E-2,-6.324999966E-3,-8.249999955E-3
1.680153664E0,3.423750028E-2,-2.749999985E-3,-1.319999993E-2
1.682659433E0,2.571249940E-2,4.674999975E-3,-1.196249947E-2
1.685165970E0,-0.000000000E0,1.072499994E-2,-5.912499968E-3
1.687673354E0,-3.547500074E-2,9.487500414E-3,2.749999985E-4
1.690179818E0,-6.352499872E-2,3.437499981E-3,7.562499959E-3
1.692685664E0,-7.576250285E-2,4.674999975E-3,1.127499994E-2
1.695192124E0,-6.476250291E-2,-1.512499992E-3,1.484999992E-2
1.697699630E0,-3.781250119E-2,-1.512499992E-3,1.608750038E-2
1.700206094E0,-3.712499980E-3,2.199999988E-3,1.127499994E-2
1.702711709E0,2.681249939E-2,9.624999948E-4,7.562499959E-3
1.705218399E0,4.028749838E-2,-8.799999952E-3,-9.624999948E-4
1.707725784E0,4.523750022E-2,-1.608750038E-2,-3.437499981E-3
1.710232324E0,4.523750022E-2,-1.979999989E-2,-5.912499968E-3
1.712738094E0,4.523750022E-2,-1.127499994E-2,-8.249999955E-3
1.715244553E0,4.028749838E-2,-1.512499992E-3,-4.674999975E-3
1.717751923E0,3.299999982E-2,5.912499968E-3,-7.149999961E-3
1.720258463E0,2.323750034E-2,8.249999955E-3,-8.249999955E-3
1.722764232E0,-2.474999987E-3,2.199999988E-3,-9.487500414E-3
1.725271000E0,-2.928750031E-2,-2.749999985E-3,-4.674999975E-3
1.727778183E0,-5.376249924E-2,9.624999948E-4,2.612499986E-3
1.730284877E0,-6.971249729E-2,9.487500414E-3,1.003750041E-2
1.732790492E0,-6.971249729E-2,1.319999993E-2,1.856249943E-2
1.735297183E0,-4.881250113E-2,2.199999988E-3,1.856249943E-2
1.737804561E0,-7.287499961E-3,-5.087499972E-3,1.127499994E-2
1.740311025E0,3.176249936E-2,-7.562499959E-3,2.612499986E-3
1.742816871E0,5.252499878E-2,-1.498750038E-2,-2.199999988E-3
1.745323330E0,5.252499878E-2,-1.856249943E-2,-3.437499981E-3
1.747830706E0,4.276249930E-2,-1.127499994E-2,-4.674999975E-3
1.750337247E0,3.176249936E-2,-2.749999985E-4,-4.674999975E-3
1.752843016E0,2.323750034E-2,4.674999975E-3,-9.487500414E-3
1.755349552E0,2.447500080E-2,2.199999988E-3,-1.443750039E-2
1.757856909E0,2.323750034E-2,2.199999988E-3,-1.814999990E-2
1.760363372E0,1.347499993E-2,7.012499962E-3,-1.443750039E-2
1.762869219E0,-1.347499993E-2,8.249999955E-3,-5.912499968E-3
1.765375678E0,-4.523750022E-2,8.249999955E-3,3.849999979E-3
1.767883048E0,-7.081250101E-2,4.674999975E-3,1.361249946E-2
1.770389742E0,-7.204999775E-2,2.199999988E-3,1.608750038E-2
1.772895357E0,-4.881250113E-2,-5.087499972E-3,1.732499897E-2
1.775402048E0,-1.099999994E-2,-3.987499978E-3,1.361249946E-2
1.777909432E0,2.447500080E-2,-3.987499978E-3,7.562499959E-3
1.780415896E0,4.152499884E-2,-6.324999966E-3,3.849999979E-3
1.782921742E0,4.028749838E-2,-8.799999952E-3,-2.199999988E-3
1.785428202E0,3.176249936E-2,-1.498750038E-2,-4.674999975E-3
1.787935586E0,3.176249936E-2,-1.127499994E-2,-8.249999955E-3
1.790442127E0,3.299999982E-2,-3.987499978E-3,-1.196249947E-2
1.792947896E0,3.299999982E-2,3.437499981E-3,-1.196249947E-2
1.795454432E0,2.571249940E-2,7.012499962E-3,-1.196249947E-2
1.797961817E0,8.524999954E-3,1.196249947E-2,-7.149999961E-3
1.800468516E0,-1.952499896E-2,4.674999975E-3,-3.437499981E-3
1.802974132E0,-4.523750022E-2,9.624999948E-4,2.749999985E-4
1.805480591E0,-6.228749827E-2,9.624999948E-4,5.087499972E-3
1.807987976E0,-6.599999964E-2,9.624999948E-4,1.003750041E-2
1.810494661E0,-4.881250113E-2,9.624999948E-4,1.251249947E-2
1.813000277E0,-2.199999988E-2,2.199999988E-3,1.251249947E-2
1.815506967E0,1.099999994E-2,9.624999948E-4,8.799999952E-3
1.818014352E0,2.928750031E-2,-5.087499972E-3,1.512499992E-3
1.820520892E0,3.904999793E-2,-1.374999993E-2,-4.674999975E-3
1.823026661E0,4.028749838E-2,-1.127499994E-2,-9.487500414E-3
1.825533198E0,4.152499884E-2,-6.324999966E-3,-1.443750039E-2
1.828040582E0,4.152499884E-2,-2.749999985E-4,-1.567500085E-2
1.830547036E0,3.781250119E-2,2.199999988E-3,-1.567500085E-2
1.833052882E0,2.804999985E-2,2.199999988E-3,-1.072499994E-2
1.835559212E0,1.099999994E-2,5.912499968E-3,-8.249999955E-3
1.838065503E0,-1.594999991E-2,2.199999988E-3,-2.199999988E-3
1.840573424E0,-4.523750022E-2,2.199999988E-3,6.324999966E-3
1.843079041E0,-6.847500056E-2,9.624999948E-4,8.799999952E-3
1.845585731E0,-7.328750193E-2,2.199999988E-3,1.484999992E-2
1.848093116E0,-6.104999781E-2,2.199999988E-3,1.608750038E-2
1.850599579E0,-2.928750031E-2,-2.749999985E-4,1.484999992E-2
1.853105426E0,8.524999954E-3,-2.749999985E-4,8.799999952E-3
1.855611885E0,3.423750028E-2,-6.324999966E-3,2.749999985E-4
1.858119270E0,4.276249930E-2,-1.374999993E-2,-4.674999975E-3
1.860625924E0,4.523750022E-2,-1.498750038E-2,-8.249999955E-3
1.863131693E0,4.399999976E-2,-7.562499959E-3,-7.149999961E-3
1.865638230E0,4.028749838E-2,9.624999948E-4,-1.072499994E-2
1.868145614E0,3.176249936E-2,5.912499968E-3,-1.196249947E-2
1.870652088E0,2.323750034E-2,8.249999955E-3,-1.443750039E-2
1.873157934E0,4.812499974E-3,7.012499962E-3,-1.443750039E-2
1.875664394E0,-1.828750037E-2,5.912499968E-3,-7.149999961E-3
1.878171778E0,-4.276249930E-2,-2.749999985E-3,2.749999985E-4
1.880678463E0,-5.981250107E-2,4.674999975E-3,1.127499994E-2
1.883184078E0,-6.971249729E-2,4.674999975E-3,1.608750038E-2
1.885690768E0,-5.871250108E-2,3.437499981E-3,1.732499897E-2
1.888198153E0,-3.176249936E-2,-2.749999985E-4,1.251249947E-2
1.890704688E0,6.049999967E-3,9.624999948E-4,3.849999979E-3
1.893210458E0,3.423750028E-2,-2.749999985E-3,-2.199999988E-3
1.895716994E0,4.523750022E-2,-8.799999952E-3,-8.249999955E-3
1.898224302E0,4.399999976E-2,-1.003750041E-2,-8.249999955E-3
1.900730877E0,4.028749838E-2,-7.562499959E-3,-1.072499994E-2
1.903236647E0,4.152499884E-2,-1.512499992E-3,-1.072499994E-2
1.905743183E0,4.152499884E-2,-1.512499992E-3,-1.072499994E-2
1.908250568E0,3.671250120E-2,4.674999975E-3,-1.319999993E-2
1.910757266E0,2.199999988E-2,5.912499968E-3,-1.196249947E-2
1.913262881E0,-6.049999967E-3,4.674999975E-3,-5.912499968E-3
1.915769572E0,-4.028749838E-2,-2.749999985E-4,1.512499992E-3
1.918276956E0,-6.723749638E-2,9.624999948E-4,1.003750041E-2
1.920783454E0,-7.576250285E-2,4.674999975E-3,1.361249946E-2
1.923289300E0,-6.847500056E-2,4.674999975E-3,1.732499897E-2
1.925795760E0,-4.028749838E-2,2.199999988E-3,1.608750038E-2
1.928303144E0,-1.237499993E-3,-1.512499992E-3,1.003750041E-2
1.930809685E0,3.052499890E-2,-2.749999985E-3,1.512499992E-3
1.933315454E0,4.523750022E-2,-1.127499994E-2,-5.912499968E-3
1.935821990E0,5.004999787E-2,-1.608750038E-2,-9.487500414E-3
1.938329375E0,5.004999787E-2,-1.003750041E-2,-1.196249947E-2
1.940835839E0,4.523750022E-2,-1.512499992E-3,-1.196249947E-2
1.943341704E0,3.671250120E-2,9.624999948E-4,-1.443750039E-2
1.945848163E0,3.052499890E-2,2.199999988E-3,-1.196249947E-2
1.948355548E0,1.828750037E-2,5.912499968E-3,-1.196249947E-2
1.950862242E0,-6.049999967E-3,9.624999948E-4,-8.249999955E-3
1.953367844E0,-4.028749838E-2,2.199999988E-3,2.749999985E-4
1.955874534E0,-6.971249729E-2,5.912499968E-3,7.562499959E-3
1.958381918E0,-8.304999769E-2,1.072499994E-2,1.608750038E-2
1.960888382E0,-7.576250285E-2,8.249999955E-3,1.856249943E-2
1.963394209E0,-4.647500068E-2,3.437499981E-3,1.608750038E-2
1.965900669E0,-0.000000000E0,-6.324999966E-3,1.003750041E-2
1.968408053E0,4.028749838E-2,-1.003750041E-2,1.512499992E-3
1.970914594E0,5.981250107E-2,-1.608750038E-2,-4.674999975E-3
1.973420363E0,5.857500061E-2,-1.251249947E-2,-7.149999961E-3
1.975926900E0,5.128749833E-2,-8.799999952E-3,-5.912499968E-3
1.978434207E0,4.152499884E-2,-2.749999985E-3,-7.149999961E-3
1.980940978E0,3.547500074E-2,-2.749999985E-3,-1.072499994E-2
1.983446512E0,2.928750031E-2,-5.087499972E-3,-1.196249947E-2
1.985953279E0,2.199999988E-2,2.199999988E-3,-1.072499994E-2
1.988460664E0,2.474999987E-3,7.012499962E-3,-7.149999961E-3
1.990967127E0,-2.804999985E-2,8.249999955E-3,1.512499992E-3
1.993472982E0,-6.104999781E-2,7.012499962E-3,7.562499959E-3
1.995979442E0,-8.304999769E-2,5.912499968E-3,1.484999992E-2
1.998486827E0,-8.428750187E-2,4.674999975E-3,1.856249943E-2
2.000993367E0,-5.981250107E-2,9.624999948E-4,1.979999989E-2
2.003499141E0,-1.223750040E-2,9.624999948E-4,1.361249946E-2
2.006005601E0,3.176249936E-2,2.199999988E-3,5.087499972E-3
2.008513062E0,5.499999970E-2,-6.324999966E-3,-4.674999975E-3
2.011019526E0,5.747500062E-2,-1.608750038E-2,-9.487500414E-3
2.013525367E0,5.128749833E-2,-1.498750038E-2,-1.072499994E-2
2.016031827E0,4.152499884E-2,-6.324999966E-3,-1.196249947E-2
2.018539211E0,3.781250119E-2,2.199999988E-3,-1.072499994E-2
2.021045906E0,3.176249936E-2,9.624999948E-4,-8.249999955E-3
2.023551540E0,2.681249939E-2,2.199999988E-3,-8.249999955E-3
2.026058230E0,7.287499961E-3,-2.749999985E-3,-4.674999975E-3
2.028565615E0,-2.694999985E-2,-1.512499992E-3,5.087499972E-3
2.031072078E0,-6.228749827E-2,3.437499981E-3,1.361249946E-2
2.033577925E0,-8.676250279E-2,7.012499962E-3,1.979999989E-2
2.036084384E0,-8.428750187E-2,5.912499968E-3,2.103750035E-2
2.038591769E0,-5.871250108E-2,3.437499981E-3,1.484999992E-2
2.041098232E0,-1.704999991E-2,9.624999948E-4,1.127499994E-2
2.043604089E0,2.681249939E-2,9.624999948E-4,2.612499986E-3
2.046110548E0,5.499999970E-2,-1.512499992E-3,-4.674999975E-3
2.048617933E0,6.104999781E-2,-1.251249947E-2,-8.249999955E-3
2.051124473E0,5.747500062E-2,-1.608750038E-2,-9.487500414E-3
2.053630247E0,5.004999787E-2,-1.251249947E-2,-7.149999961E-3
2.056137015E0,4.028749838E-2,-1.512499992E-3,-7.149999961E-3
2.058644168E0,3.547500074E-2,-2.749999985E-4,-8.249999955E-3
2.061150863E0,2.571249940E-2,2.199999988E-3,-8.249999955E-3
2.063656463E0,4.812499974E-3,8.249999955E-3,-7.149999961E-3
2.066163153E0,-2.694999985E-2,9.624999948E-4,-9.624999948E-4
2.068670538E0,-6.104999781E-2,3.437499981E-3,3.849999979E-3
2.071177079E0,-8.304999769E-2,9.487500414E-3,1.127499994E-2
2.073682853E0,-8.181250095E-2,1.443750039E-2,1.484999992E-2
2.076189389E0,-6.104999781E-2,5.912499968E-3,1.484999992E-2
2.078696697E0,-2.076249942E-2,-1.512499992E-3,1.361249946E-2
2.081203237E0,2.447500080E-2,-5.087499972E-3,5.087499972E-3
2.083709007E0,5.499999970E-2,-1.127499994E-2,2.612499986E-3
2.086215543E0,6.352499872E-2,-1.608750038E-2,-3.437499981E-3
2.088722928E0,6.104999781E-2,-1.608750038E-2,-5.912499968E-3
2.091229391E0,5.128749833E-2,-1.127499994E-2,-4.674999975E-3
2.093735247E0,4.028749838E-2,-5.087499972E-3,-4.674999975E-3
2.096241707E0,3.052499890E-2,9.624999948E-4,-5.912499968E-3
2.098749322E0,1.828750037E-2,-2.749999985E-4,-7.149999961E-3
2.101255786E0,2.474999987E-3,3.437499981E-3,-5.912499968E-3
2.103761622E0,-2.323750034E-2,4.674999975E-3,-2.199999988E-3
2.106268082E0,-5.376249924E-2,8.249999955E-3,3.849999979E-3
2.108775466E0,-7.204999775E-2,1.196249947E-2,1.127499994E-2
2.111281930E0,-7.947500050E-2,1.319999993E-2,1.484999992E-2
2.113787795E0,-6.228749827E-2,5.912499968E-3,1.484999992E-2
2.116294255E0,-2.323750034E-2,-3.987499978E-3,1.127499994E-2
2.118801716E0,2.323750034E-2,-3.987499978E-3,3.849999979E-3
2.121308180E0,5.499999970E-2,-7.562499959E-3,-9.624999948E-4
2.123814074E0,5.857500061E-2,-1.003750041E-2,-3.437499981E-3
2.126320533E0,5.004999787E-2,-1.127499994E-2,-9.624999948E-4
2.128827918E0,4.399999976E-2,-5.087499972E-3,-3.437499981E-3
2.131334612E0,4.028749838E-2,-2.749999985E-3,-5.912499968E-3
2.133840243E0,3.795000166E-2,-3.987499978E-3,-8.387500420E-3
2.136346933E0,3.423750028E-2,-1.512499992E-3,-1.319999993E-2
2.138854087E0,1.594999991E-2,5.774999969E-3,-1.072499994E-2
2.141360858E0,-1.581249945E-2,9.487500414E-3,-3.437499981E-3
2.143866411E0,-5.252499878E-2,8.249999955E-3,7.562499959E-3
2.146373178E0,-7.576250285E-2,8.249999955E-3,1.251249947E-2
2.148880485E0,-8.181250095E-2,4.674999975E-3,1.856249943E-2
2.151387026E0,-6.352499872E-2,-1.512499992E-3,1.608750038E-2
2.153892809E0,-2.681249939E-2,-5.087499972E-3,1.361249946E-2
2.156399346E0,1.471249945E-2,-1.512499992E-3,1.003750041E-2
2.158906730E0,4.276249930E-2,-2.749999985E-4,2.749999985E-4
2.161413194E0,5.128749833E-2,-8.799999952E-3,-3.437499981E-3
2.163919050E0,5.499999970E-2,-1.608750038E-2,-7.149999961E-3
2.166425510E0,5.128749833E-2,-1.732499897E-2,-7.149999961E-3
2.168932894E0,4.523750022E-2,-1.003750041E-2,-8.387500420E-3
2.171439588E0,3.904999793E-2,-1.512499992E-3,-7.149999961E-3
2.173945189E0,2.928750031E-2,4.674999975E-3,-5.912499968E-3
2.176451879E0,1.223750040E-2,4.674999975E-3,-4.674999975E-3
2.178959264E0,-1.581249945E-2,4.674999975E-3,2.749999985E-4
2.181465727E0,-4.633750021E-2,-2.749999985E-4,2.612499986E-3
2.183971569E0,-7.081250101E-2,3.437499981E-3,8.799999952E-3
2.186478029E0,-7.576250285E-2,8.249999955E-3,1.127499994E-2
2.188985414E0,-6.228749827E-2,9.487500414E-3,1.251249947E-2
2.191491954E0,-2.804999985E-2,2.199999988E-3,8.799999952E-3
2.193997732E0,9.762499481E-3,-1.512499992E-3,2.612499986E-3
2.196504269E0,4.028749838E-2,-3.987499978E-3,-2.199999988E-3
2.199011653E0,5.004999787E-2,-1.251249947E-2,-4.674999975E-3
2.201518348E0,5.004999787E-2,-1.498750038E-2,-4.674999975E-3
2.204023978E0,4.647500068E-2,-1.251249947E-2,-4.674999975E-3
2.206530668E0,4.399999976E-2,-5.087499972E-3,-7.149999961E-3
2.209037822E0,3.671250120E-2,-2.749999985E-4,-9.487500414E-3
2.211544517E0,2.571249940E-2,9.624999948E-4,-1.443750039E-2
2.214050132E0,1.099999994E-2,4.674999975E-3,-1.072499994E-2
2.216556822E0,-1.952499896E-2,5.774999969E-3,-4.674999975E-3
2.219064207E0,-4.399999976E-2,3.437499981E-3,1.512499992E-3
2.221570747E0,-6.228749827E-2,2.199999988E-3,1.003750041E-2
2.224076501E0,-6.476250291E-2,4.674999975E-3,1.361249946E-2
2.226583037E0,-5.623750016E-2,9.624999948E-4,1.856249943E-2
2.229090422E0,-2.928750031E-2,-1.512499992E-3,1.484999992E-2
2.231596885E0,4.949999973E-3,-3.987499978E-3,8.799999952E-3
2.234102722E0,3.176249936E-2,-2.749999985E-3,2.749999985E-4
2.236609182E0,4.399999976E-2,-8.799999952E-3,-8.387500420E-3
2.239116567E0,4.895000160E-2,-1.251249947E-2,-9.487500414E-3
2.241623261E0,4.152499884E-2,-1.003750041E-2,-1.072499994E-2
2.244128871E0,3.547500074E-2,-1.512499992E-3,-4.674999975E-3
2.246635562E0,2.928750031E-2,4.674999975E-3,-7.149999961E-3
2.249142946E0,2.323750034E-2,2.199999988E-3,-9.487500414E-3
2.251649487E0,1.099999994E-2,4.674999975E-3,-1.072499994E-2
2.254155275E0,-6.049999967E-3,2.199999988E-3,-8.387500420E-3
2.256661734E0,-3.176249936E-2,-2.749999985E-4,-9.624999948E-4
2.259169119E0,-5.981250107E-2,7.012499962E-3,6.324999966E-3
2.261675660E0,-7.204999775E-2,1.443750039E-2,1.251249947E-2
2.264181434E0,-6.723749638E-2,8.249999955E-3,1.251249947E-2
2.266687970E0,-3.904999793E-2,-1.512499992E-3,8.799999952E-3
2.269195355E0,3.712499980E-3,-7.562499959E-3,2.612499986E-3
2.271702049E0,3.904999793E-2,-7.562499959E-3,-2.199999988E-3
2.274207650E0,5.004999787E-2,-1.003750041E-2,-9.624999948E-4
2.276714340E0,4.895000160E-2,-8.799999952E-3,-3.437499981E-3
2.279221494E0,4.276249930E-2,-6.324999966E-3,-2.199999988E-3
2.281728188E0,3.671250120E-2,-5.087499972E-3,-5.912499968E-3
2.284233789E0,3.547500074E-2,-3.987499978E-3,-1.319999993E-2
2.286740480E0,3.176249936E-2,-2.749999985E-4,-1.319999993E-2
2.289247864E0,2.076249942E-2,9.487500414E-3,-1.319999993E-2
2.291754405E0,-4.812499974E-3,1.072499994E-2,-5.912499968E-3
2.294260160E0,-3.781250119E-2,9.487500414E-3,1.512499992E-3
2.296766697E0,-6.599999964E-2,4.674999975E-3,1.003750041E-2
2.299274081E0,-7.452499866E-2,3.437499981E-3,1.484999992E-2
2.301780545E0,-6.352499872E-2,2.199999988E-3,1.732499897E-2
2.304286391E0,-3.423750028E-2,2.199999988E-3,1.608750038E-2
2.306792850E0,3.712499980E-3,3.437499981E-3,6.324999966E-3
2.309300235E0,3.547500074E-2,9.624999948E-4,2.749999985E-4
2.311806929E0,4.399999976E-2,-7.562499959E-3,-4.674999975E-3
2.314312506E0,3.904999793E-2,-1.856249943E-2,-8.387500420E-3
2.316819196E0,3.547500074E-2,-1.374999993E-2,-7.149999961E-3
2.319326581E0,3.547500074E-2,-2.749999985E-3,-8.387500420E-3
2.321833044E0,3.547500074E-2,5.774999969E-3,-7.149999961E-3
2.324338880E0,2.928750031E-2,4.674999975E-3,-9.487500414E-3
2.326845340E0,1.952499896E-2,2.199999988E-3,-1.072499994E-2
2.329352725E0,-4.812499974E-3,9.624999948E-4,-7.149999961E-3
2.331859265E0,-3.781250119E-2,-2.749999985E-3,1.512499992E-3
2.334365039E0,-6.228749827E-2,7.012499962E-3,7.562499959E-3
2.336871576E0,-7.204999775E-2,1.443750039E-2,1.251249947E-2
2.339378960E0,-6.104999781E-2,1.319999993E-2,1.361249946E-2
2.341885655E0,-3.904999793E-2,-1.512499992E-3,1.127499994E-2
2.344391251E0,-4.812499974E-3,-6.324999966E-3,6.324999966E-3
2.346897941E0,3.052499890E-2,-1.127499994E-2,2.612499986E-3
2.349405095E0,4.771250114E-2,-8.799999952E-3,2.749999985E-4
2.351911790E0,5.128749833E-2,-1.127499994E-2,-3.437499981E-3
2.354417386E0,4.399999976E-2,-1.003750041E-2,-4.674999975E-3
2.356924076E0,3.904999793E-2,-7.562499959E-3,-7.149999961E-3
2.359431461E0,3.299999982E-2,-3.987499978E-3,-9.487500414E-3
2.361938001E0,2.571249940E-2,2.199999988E-3,-1.443750039E-2
2.364443766E0,1.347499993E-2,5.774999969E-3,-1.443750039E-2
2.366950302E0,-7.287499961E-3,1.196249947E-2,-1.072499994E-2
2.369457687E0,-3.176249936E-2,9.487500414E-3,-3.437499981E-3
2.371964150E0,-5.623750016E-2,9.487500414E-3,2.612499986E-3
2.374469977E0,-6.957499683E-2,5.774999969E-3,1.003750041E-2
2.376976437E0,-6.723749638E-2,3.437499981E-3,1.608750038E-2
2.379483822E0,-4.633750021E-2,-2.749999985E-3,1.608750038E-2
2.381990516E0,-8.524999954E-3,-5.087499972E-3,1.361249946E-2
2.384496126E0,2.694999985E-2,-3.987499978E-3,6.324999966E-3
2.387002817E0,4.647500068E-2,-6.324999966E-3,-2.199999988E-3
2.389510201E0,4.647500068E-2,-1.127499994E-2,-5.912499968E-3
2.392016665E0,4.152499884E-2,-1.374999993E-2,-5.912499968E-3
2.394522521E0,3.671250120E-2,-7.562499959E-3,-4.674999975E-3
2.397028980E0,2.928750031E-2,-2.749999985E-3,-5.912499968E-3
2.399536365E0,2.571249940E-2,2.199999988E-3,-8.387500420E-3
2.402042906E0,1.594999991E-2,7.012499962E-3,-9.487500414E-3
2.404548660E0,-2.474999987E-3,1.072499994E-2,-8.387500420E-3
2.407055196E0,-2.928750031E-2,7.012499962E-3,-2.199999988E-3
2.409562581E0,-5.733750015E-2,5.774999969E-3,5.087499972E-3
2.412069275E0,-6.957499683E-2,7.012499962E-3,1.127499994E-2
2.414574867E0,-6.476250291E-2,3.437499981E-3,1.251249947E-2
2.417081557E0,-3.904999793E-2,-2.749999985E-4,1.484999992E-2
2.419588941E0,-3.574999981E-3,-3.987499978E-3,1.251249947E-2
2.422095405E0,3.423750028E-2,-6.324999966E-3,3.849999979E-3
2.424601025E0,5.128749833E-2,-8.799999952E-3,1.512499992E-3
2.427107716E0,4.895000160E-2,-1.251249947E-2,-9.624999948E-4
2.429615100E0,3.904999793E-2,-1.608750038E-2,-9.624999948E-4
2.432121641E0,3.299999982E-2,-1.003750041E-2,-2.199999988E-3
2.434627419E0,3.052499890E-2,-1.512499992E-3,-5.912499968E-3
2.437133956E0,2.447500080E-2,4.674999975E-3,-8.387500420E-3
2.439641340E0,1.347499993E-2,8.249999955E-3,-1.196249947E-2
2.442147804E0,-7.287499961E-3,1.072499994E-2,-5.912499968E-3
2.444653645E0,-3.299999982E-2,8.249999955E-3,-2.199999988E-3
2.447160104E0,-5.252499878E-2,4.674999975E-3,5.087499972E-3
2.449667489E0,-6.104999781E-2,5.774999969E-3,1.003750041E-2
2.452174183E0,-5.252499878E-2,9.624999948E-4,1.251249947E-2
2.454679814E0,-3.904999793E-2,3.437499981E-3,1.361249946E-2
2.457186504E0,-7.287499961E-3,-5.087499972E-3,1.003750041E-2
2.459693889E0,2.323750034E-2,-3.987499978E-3,8.799999952E-3
2.462200352E0,4.399999976E-2,-2.749999985E-3,2.612499986E-3
2.464706203E0,4.771250114E-2,-1.856249943E-2,1.512499992E-3
2.467212663E0,4.028749838E-2,-2.103750035E-2,-9.624999948E-4
2.469720048E0,3.052499890E-2,-1.251249947E-2,-2.199999988E-3
2.472226588E0,2.571249940E-2,9.624999948E-4,-9.624999948E-4
2.474732390E0,1.099999994E-2,5.774999969E-3,-3.437499981E-3
2.477238927E0,0.000000000E0,5.774999969E-3,-2.199999988E-3
2.479746311E0,-8.524999954E-3,3.437499981E-3,-5.912499968E-3
2.482253006E0,-2.323750034E-2,9.624999948E-4,-2.199999988E-3
2.484758616E0,-3.781250119E-2,4.674999975E-3,2.612499986E-3
2.487265306E0,-4.523750022E-2,1.196249947E-2,3.849999979E-3
2.489772460E0,-4.276249930E-2,1.196249947E-2,7.562499959E-3
2.492279155E0,-2.928750031E-2,3.437499981E-3,5.087499972E-3
2.494784780E0,-9.762499481E-3,-7.562499959E-3,2.612499986E-3
2.497291470E0,1.594999991E-2,-1.498750038E-2,1.512499992E-3
2.499798855E0,4.028749838E-2,-8.799999952E-3,2.612499986E-3
2.502305395E0,5.004999787E-2,-6.324999966E-3,5.087499972E-3
2.504811165E0,4.276249930E-2,-1.003750041E-2,5.087499972E-3
2.507317629E0,2.571249940E-2,-1.979999989E-2,7.562499959E-3
2.509825091E0,1.099999994E-2,-1.732499897E-2,2.612499986E-3
2.512331554E0,2.474999987E-3,-7.562499959E-3,2.749999985E-4
2.514837400E0,-3.574999981E-3,1.443750039E-2,-5.912499968E-3
2.517343869E0,-8.524999954E-3,2.667500079E-2,-9.487500414E-3
2.519851254E0,-2.447500080E-2,2.048750035E-2,-1.443750039E-2
2.522357717E0,-4.276249930E-2,8.249999955E-3,-1.196249947E-2
2.524863563E0,-4.757500067E-2,2.199999988E-3,-3.437499981E-3
2.527370023E0,-4.028749838E-2,5.774999969E-3,2.612499986E-3
2.529877638E0,-1.828750037E-2,2.199999988E-3,1.003750041E-2
2.532384102E0,8.524999954E-3,-8.799999952E-3,1.251249947E-2
2.534889948E0,3.904999793E-2,-1.979999989E-2,1.127499994E-2
2.537396422E0,5.623750016E-2,-2.598750032E-2,1.003750041E-2
2.539903807E0,5.252499878E-2,-2.708750032E-2,8.799999952E-3
2.542410347E0,3.795000166E-2,-1.856249943E-2,1.003750041E-2
2.544916117E0,2.323750034E-2,-7.562499959E-3,8.799999952E-3
2.547422658E0,9.762499481E-3,-2.749999985E-3,1.512499992E-3
2.549930043E0,-6.049999967E-3,-1.512499992E-3,-7.149999961E-3
2.552436737E0,-1.581249945E-2,7.012499962E-3,-1.443750039E-2
2.554942353E0,-2.447500080E-2,2.419999987E-2,-1.319999993E-2
2.557449043E0,-3.547500074E-2,3.396249935E-2,-1.196249947E-2
2.559956197E0,-4.633750021E-2,2.419999987E-2,-8.387500420E-3
2.562462891E0,-5.252499878E-2,4.674999975E-3,-4.674999975E-3
2.564968506E0,-4.152499884E-2,-5.087499972E-3,-9.624999948E-4
2.567475216E0,-1.457499992E-2,-6.324999966E-3,5.087499972E-3
2.569982600E0,1.718750037E-2,-5.087499972E-3,7.562499959E-3
2.572489064E0,4.895000160E-2,-6.324999966E-3,1.127499994E-2
2.574994910E0,6.599999964E-2,-1.498750038E-2,8.799999952E-3
2.577501341E0,6.476250291E-2,-2.708750032E-2,6.324999966E-3
2.580008802E0,4.647500068E-2,-3.327500075E-2,5.087499972E-3
2.582515266E0,2.447500080E-2,-2.227500081E-2,3.849999979E-3
2.585021112E0,3.712499980E-3,-2.749999985E-3,5.087499972E-3
2.587527571E0,-1.223750040E-2,1.567500085E-2,2.749999985E-4
2.590034956E0,-1.952499896E-2,1.924999990E-2,-5.912499968E-3
2.592541650E0,-2.681249939E-2,2.048750035E-2,-1.319999993E-2
2.595047266E0,-3.904999793E-2,1.567500085E-2,-1.691249944E-2
2.597553946E0,-5.004999787E-2,1.072499994E-2,-1.072499994E-2
2.600061100E0,-5.376249924E-2,1.196249947E-2,-4.674999975E-3
2.602567871E0,-4.276249930E-2,1.196249947E-2,6.324999966E-3
2.605073410E0,-2.199999988E-2,5.774999969E-3,1.127499994E-2
2.607580105E0,1.223750040E-2,-1.003750041E-2,1.003750041E-2
2.610087489E0,4.895000160E-2,-1.979999989E-2,6.324999966E-3
2.612594030E0,6.723749638E-2,-2.351249941E-2,5.087499972E-3
2.615099799E0,6.352499872E-2,-2.351249941E-2,5.087499972E-3
2.617606327E0,4.276249930E-2,-2.227500081E-2,5.087499972E-3
2.620113711E0,2.199999988E-2,-1.127499994E-2,8.799999952E-3
2.622620175E0,4.949999973E-3,-1.512499992E-3,5.087499972E-3
2.625126021E0,-8.524999954E-3,7.012499962E-3,-9.624999948E-4
2.627632481E0,-1.952499896E-2,1.319999993E-2,-8.249999955E-3
2.630140096E0,-2.323750034E-2,1.801249944E-2,-1.443750039E-2
2.632646559E0,-2.928750031E-2,2.419999987E-2,-1.567500085E-2
2.635152175E0,-4.399999976E-2,2.172499895E-2,-1.196249947E-2
2.637658865E0,-5.499999970E-2,1.443750039E-2,-5.912499968E-3
2.640166240E0,-5.252499878E-2,9.487500414E-3,2.749999985E-4
2.642672703E0,-3.176249936E-2,4.674999975E-3,7.562499959E-3
2.645178549E0,1.237499993E-3,-6.324999966E-3,1.127499994E-2
2.647685009E0,4.028749838E-2,-1.608750038E-2,8.799999952E-3
2.650192394E0,7.452499866E-2,-2.598750032E-2,6.324999966E-3
2.652699165E0,8.304999769E-2,-2.598750032E-2,5.087499972E-3
2.655204703E0,6.957499683E-2,-2.708750032E-2,7.562499959E-3
2.657711240E0,4.028749838E-2,-1.732499897E-2,8.799999952E-3
2.660218609E0,1.347499993E-2,-3.987499978E-3,6.324999966E-3
2.662725304E0,-7.287499961E-3,2.199999988E-3,1.512499992E-3
2.665230919E0,-2.199999988E-2,7.012499962E-3,-7.149999961E-3
2.667737609E0,-3.176249936E-2,1.567500085E-2,-1.319999993E-2
2.670245004E0,-4.523750022E-2,2.901249938E-2,-1.319999993E-2
2.672751468E0,-6.104999781E-2,3.024999984E-2,-8.249999955E-3
2.675257314E0,-7.081250101E-2,2.667500079E-2,-2.199999988E-3
2.677763773E0,-6.104999781E-2,1.443750039E-2,-2.199999988E-3
2.680271124E0,-3.176249936E-2,-2.749999985E-4,1.512499992E-3
2.682777664E0,1.471249945E-2,-1.127499994E-2,3.849999979E-3
2.685283434E0,6.352499872E-2,-1.498750038E-2,5.087499972E-3
2.687789970E0,9.528750181E-2,-1.374999993E-2,5.087499972E-3
2.690297360E0,9.652499855E-2,-2.103750035E-2,3.849999979E-3
2.692803823E0,7.452499866E-2,-2.832499892E-2,5.087499972E-3
2.695309669E0,4.152499884E-2,-3.203750029E-2,6.324999966E-3
2.697816129E0,7.287499961E-3,-2.103750035E-2,8.799999952E-3
2.700323514E0,-1.828750037E-2,-5.087499972E-3,6.324999966E-3
2.702830208E0,-3.052499890E-2,1.567500085E-2,1.512499992E-3
2.705335823E0,-3.671250120E-2,2.901249938E-2,-4.674999975E-3
2.707842514E0,-4.399999976E-2,3.272499889E-2,-1.443750039E-2
2.710349874E0,-5.623750016E-2,2.419999987E-2,-1.691249944E-2
2.712856415E0,-6.228749827E-2,1.443750039E-2,-1.691249944E-2
2.715362184E0,-4.881250113E-2,1.196249947E-2,-1.072499994E-2
2.717868720E0,-2.076249942E-2,9.487500414E-3,-4.674999975E-3
2.720376090E0,1.952499896E-2,9.624999948E-4,2.612499986E-3
2.722882554E0,6.104999781E-2,-1.374999993E-2,6.324999966E-3
2.725388400E0,9.157499671E-2,-2.351249941E-2,7.562499959E-3
2.727894859E0,9.404999763E-2,-3.575000167E-2,6.324999966E-3
2.730402230E0,7.452499866E-2,-3.932499886E-2,7.562499959E-3
2.732908924E0,4.647500068E-2,-3.079999983E-2,1.003750041E-2
2.735414540E0,1.471249945E-2,-1.498750038E-2,1.251249947E-2
2.737921230E0,-1.704999991E-2,-1.512499992E-3,1.003750041E-2
2.740428629E0,-4.152499884E-2,7.012499962E-3,5.087499972E-3
2.742935092E0,-5.747500062E-2,1.801249944E-2,-9.624999948E-4
2.745440938E0,-6.228749827E-2,3.024999984E-2,-7.149999961E-3
2.747947398E0,-6.228749827E-2,3.519999981E-2,-1.443750039E-2
2.750454782E0,-5.857500061E-2,3.024999984E-2,-1.924999990E-2
2.752961323E0,-4.152499884E-2,2.296249941E-2,-2.048750035E-2
2.755467092E0,-1.099999994E-2,1.319999993E-2,-1.691249944E-2
2.757973629E0,2.928750031E-2,9.624999948E-4,-8.249999955E-3
2.760480989E0,7.081250101E-2,-1.127499994E-2,-9.624999948E-4
2.762987684E0,1.050499976E-1,-2.598750032E-2,6.324999966E-3
2.765493299E0,1.148125008E-1,-3.575000167E-2,1.251249947E-2
2.767999758E0,9.899999946E-2,-4.675000161E-2,1.361249946E-2
2.770507365E0,6.599999964E-2,-4.551250115E-2,2.103750035E-2
2.773013828E0,2.323750034E-2,-3.327500075E-2,2.103750035E-2
2.775519444E0,-1.471249945E-2,-1.251249947E-2,2.351249941E-2
2.778026134E0,-4.647500068E-2,-2.749999985E-4,1.361249946E-2
2.780533528E0,-6.723749638E-2,1.196249947E-2,3.849999979E-3
2.783040068E0,-7.452499866E-2,2.543750033E-2,-4.674999975E-3
2.785545837E0,-8.181250095E-2,3.643750027E-2,-1.443750039E-2
2.788052374E0,-8.181250095E-2,3.767500073E-2,-1.443750039E-2
2.790559725E0,-6.104999781E-2,3.272499889E-2,-1.691249944E-2
2.793066188E0,-2.571249940E-2,1.677500084E-2,-1.319999993E-2
2.795572034E0,1.828750037E-2,-3.987499978E-3,-1.072499994E-2
2.798078494E0,7.081250101E-2,-1.498750038E-2,-3.437499981E-3
2.800585878E0,1.112374961E-1,-2.227500081E-2,1.512499992E-3
2.803092573E0,1.307625026E-1,-2.708750032E-2,6.324999966E-3
2.805598188E0,1.197625026E-1,-3.932499886E-2,8.799999952E-3
2.808104878E0,9.281250089E-2,-4.675000161E-2,1.003750041E-2
2.810612292E0,5.252499878E-2,-4.784999788E-2,1.484999992E-2
2.813118756E0,1.099999994E-2,-3.327500075E-2,1.856249943E-2
2.815624602E0,-2.804999985E-2,-1.003750041E-2,1.732499897E-2
2.818131138E0,-5.857500061E-2,9.487500414E-3,1.361249946E-2
2.820638470E0,-7.823749632E-2,2.901249938E-2,5.087499972E-3
2.823145010E0,-9.281250089E-2,3.519999981E-2,-2.199999988E-3
2.825650780E0,-9.652499855E-2,3.643750027E-2,-1.443750039E-2
2.828157316E0,-8.181250095E-2,2.901249938E-2,-1.924999990E-2
2.830664687E0,-4.523750022E-2,2.048750035E-2,-1.924999990E-2
2.833171381E0,-2.474999987E-3,8.249999955E-3,-1.319999993E-2
2.835677514E0,4.276249930E-2,-3.987499978E-3,-4.674999975E-3
2.838183807E0,8.304999769E-2,-1.856249943E-2,2.749999985E-4
2.840691085E0,1.112374961E-1,-2.474999987E-2,8.799999952E-3
2.843197549E0,1.209999993E-1,-3.451250121E-2,1.003750041E-2
2.845703395E0,1.087625027E-1,-4.784999788E-2,8.799999952E-3
2.848209855E0,8.799999952E-2,-5.156249925E-2,1.003750041E-2
2.850717220E0,5.376249924E-2,-4.179999977E-2,8.799999952E-3
2.853223761E0,1.471249945E-2,-2.227500081E-2,1.251249947E-2
2.855729530E0,-3.176249936E-2,-2.749999985E-3,1.361249946E-2
2.858236066E0,-7.081250101E-2,1.567500085E-2,1.251249947E-2
2.860743441E0,-9.528750181E-2,2.901249938E-2,2.612499986E-3
2.863249905E0,-1.025749967E-1,4.001250118E-2,-7.149999961E-3
2.865755751E0,-9.281250089E-2,3.396249935E-2,-1.567500085E-2
2.868262210E0,-6.723749638E-2,2.777500078E-2,-2.172499895E-2
2.870769615E0,-3.052499890E-2,1.677500084E-2,-1.691249944E-2
2.873276309E0,6.049999967E-3,5.912499968E-3,-9.487500414E-3
2.875781925E0,3.904999793E-2,-7.562499959E-3,-2.199999988E-3
2.878288615E0,7.081250101E-2,-2.227500081E-2,1.512499992E-3
2.880796019E0,1.038125008E-1,-3.808749840E-2,1.512499992E-3
2.883302559E0,1.222374961E-1,-4.303750023E-2,1.512499992E-3
2.885808328E0,1.160499975E-1,-3.575000167E-2,1.512499992E-3
2.888314865E0,9.047500044E-2,-3.451250121E-2,2.612499986E-3
2.890822249E0,4.881250113E-2,-2.708750032E-2,6.324999966E-3
2.893328713E0,0.000000000E0,-1.856249943E-2,1.003750041E-2
2.895834559E0,-4.881250113E-2,-7.562499959E-3,1.127499994E-2
2.898341019E0,-8.552499861E-2,1.196249947E-2,7.562499959E-3
2.900848408E0,-1.013374999E-1,3.396249935E-2,6.324999966E-3
2.903355102E0,-1.025749967E-1,4.372499883E-2,-2.199999988E-3
2.905860718E0,-8.676250279E-2,3.767500073E-2,-9.487500414E-3
2.908367408E0,-5.857500061E-2,2.172499895E-2,-1.443750039E-2
2.910874769E0,-2.076249942E-2,4.674999975E-3,-1.443750039E-2
2.913381232E0,1.952499896E-2,-8.799999952E-3,-1.691249944E-2
2.915887079E0,5.376249924E-2,-2.708750032E-2,-1.691249944E-2
2.918393538E0,8.676250279E-2,-3.808749840E-2,-1.691249944E-2
2.920900947E0,1.123374999E-1,-2.956249937E-2,-1.567500085E-2
2.923407487E0,1.233374998E-1,-1.127499994E-2,-1.196249947E-2
2.925913256E0,1.172875017E-1,-1.003750041E-2,-1.196249947E-2
2.928419793E0,9.047500044E-2,-2.351249941E-2,-1.196249947E-2
2.930927177E0,4.771250114E-2,-3.932499886E-2,-5.912499968E-3
2.933433862E0,-3.712499980E-3,-3.327500075E-2,2.612499986E-3
2.935939477E0,-5.747500062E-2,-3.987499978E-3,1.732499897E-2
2.938446168E0,-9.776250273E-2,2.296249941E-2,2.708750032E-2
2.940953552E0,-1.160499975E-1,3.877500072E-2,2.584999986E-2
2.943460021E0,-1.172875017E-1,3.272499889E-2,1.484999992E-2
2.945965867E0,-1.013374999E-1,2.048750035E-2,2.749999985E-4
2.948472326E0,-6.476250291E-2,1.319999993E-2,-9.487500414E-3
2.950979711E0,-2.076249942E-2,8.249999955E-3,-1.443750039E-2
2.953486270E0,2.076249942E-2,2.199999988E-3,-1.196249947E-2
2.955992040E0,5.376249924E-2,-3.987499978E-3,-9.487500414E-3
2.958498576E0,8.799999952E-2,-1.732499897E-2,-7.149999961E-3
2.961005961E0,1.135749966E-1,-2.474999987E-2,-7.149999961E-3
2.963512419E0,1.270499974E-1,-1.979999989E-2,-1.196249947E-2
2.966018265E0,1.222374961E-1,-2.351249941E-2,-1.443750039E-2
2.968524725E0,9.899999946E-2,-3.327500075E-2,-1.567500085E-2
2.971032110E0,5.871250108E-2,-4.056249931E-2,-7.149999961E-3
2.973538804E0,7.287499961E-3,-2.708750032E-2,6.324999966E-3
2.976044410E0,-4.523750022E-2,-5.087499972E-3,2.227500081E-2
2.978551101E0,-9.157499671E-2,1.443750039E-2,2.956249937E-2
2.981058485E0,-1.148125008E-1,3.024999984E-2,2.461249940E-2
2.983565026E0,-1.148125008E-1,3.148749843E-2,1.608750038E-2
2.986070775E0,-1.025749967E-1,2.901249938E-2,1.512499992E-3
2.988577311E0,-7.328750193E-2,2.543750033E-2,-1.072499994E-2
2.991084696E0,-3.176249936E-2,1.924999990E-2,-1.443750039E-2
2.993591160E0,1.099999994E-2,4.674999975E-3,-1.691249944E-2
2.996097021E0,4.771250114E-2,-1.127499994E-2,-1.072499994E-2
2.998603480E0,8.304999769E-2,-2.227500081E-2,-8.249999955E-3
3.001110865E0,1.075249985E-1,-2.227500081E-2,-4.674999975E-3
3.003617559E0,1.222374961E-1,-2.103750035E-2,-2.199999988E-3
3.006123199E0,1.160499975E-1,-2.227500081E-2,-4.674999975E-3
3.008629889E0,9.528750181E-2,-3.079999983E-2,-1.196249947E-2
3.011137043E0,6.228749827E-2,-4.303750023E-2,-1.072499994E-2
3.013643814E0,2.571249940E-2,-3.808749840E-2,-9.624999948E-4
3.016149353E0,-2.571249940E-2,-1.251249947E-2,1.361249946E-2
3.018656043E0,-7.452499866E-2,1.443750039E-2,2.461249940E-2
3.021163427E0,-1.099999994E-1,3.024999984E-2,2.832499892E-2
3.023669968E0,-1.245749965E-1,3.024999984E-2,2.103750035E-2
3.026175732E0,-1.160499975E-1,2.667500079E-2,1.127499994E-2
3.028682269E0,-8.799999952E-2,2.777500078E-2,-4.674999975E-3
3.031189653E0,-4.028749838E-2,1.677500084E-2,-1.443750039E-2
3.033696348E0,1.223750040E-2,1.072499994E-2,-1.924999990E-2
3.036201978E0,5.004999787E-2,9.624999948E-4,-1.814999990E-2
3.038708668E0,7.947500050E-2,-1.251249947E-2,-1.319999993E-2
3.041216053E0,1.014750004E-1,-2.103750035E-2,-1.072499994E-2
3.043722516E0,1.172875017E-1,-2.832499892E-2,-5.912499968E-3
3.046228358E0,1.197625026E-1,-2.598750032E-2,-9.487500414E-3
3.048734817E0,1.112374961E-1,-3.079999983E-2,-1.196249947E-2
3.051242202E0,8.057499677E-2,-3.808749840E-2,-1.072499994E-2
3.053748665E0,3.904999793E-2,-3.327500075E-2,-3.437499981E-3
3.056254521E0,-1.099999994E-2,-1.732499897E-2,1.127499994E-2
3.058760981E0,-6.228749827E-2,9.624999948E-4,2.227500081E-2
3.061268443E0,-9.899999946E-2,1.443750039E-2,2.708750032E-2
3.063775137E0,-1.172875017E-1,2.296249941E-2,2.227500081E-2
3.066280747E0,-1.135749966E-1,2.901249938E-2,1.251249947E-2
3.068787438E0,-9.033749998E-2,3.519999981E-2,2.749999985E-4
3.071294591E0,-5.376249924E-2,3.024999984E-2,-1.072499994E-2
3.073801286E0,-4.812499974E-3,1.801249944E-2,-1.814999990E-2
3.076306920E0,3.671250120E-2,-2.749999985E-3,-2.048750035E-2
3.078813610E0,6.599999964E-2,-1.979999989E-2,-1.567500085E-2
3.081320995E0,8.799999952E-2,-2.474999987E-2,-8.249999955E-3
3.083827459E0,1.075249985E-1,-2.103750035E-2,-3.437499981E-3
3.086333300E0,1.172875017E-1,-2.103750035E-2,-2.199999988E-3
3.088839759E0,1.075249985E-1,-2.103750035E-2,-9.487500414E-3
3.091347144E0,8.676250279E-2,-2.832499892E-2,-1.196249947E-2
3.093853684E0,5.252499878E-2,-3.575000167E-2,-1.072499994E-2
3.096359469E0,6.049999967E-3,-2.351249941E-2,-9.624999948E-4
3.098866005E0,-4.276249930E-2,-3.987499978E-3,1.361249946E-2
3.101373390E0,-8.676250279E-2,1.924999990E-2,2.103750035E-2
3.103880084E0,-1.087625027E-1,2.901249938E-2,2.351249941E-2
3.106385684E0,-1.062875018E-1,2.901249938E-2,1.484999992E-2
3.108892144E0,-8.923749626E-2,2.419999987E-2,2.612499986E-3
3.111399759E0,-6.104999781E-2,2.296249941E-2,-9.487500414E-3
3.113906223E0,-2.076249942E-2,1.567500085E-2,-1.691249944E-2
3.116412079E0,1.704999991E-2,9.487500414E-3,-1.567500085E-2
3.118918539E0,4.881250113E-2,-5.087499972E-3,-1.567500085E-2
3.121425923E0,7.452499866E-2,-2.103750035E-2,-8.249999955E-3
3.123932464E0,1.075249985E-1,-2.598750032E-2,-8.249999955E-3
3.126438223E0,1.307625026E-1,-2.832499892E-2,-4.674999975E-3
3.128944759E0,1.307625026E-1,-2.832499892E-2,-8.387500420E-3
3.131452144E0,1.027124971E-1,-3.327500075E-2,-1.319999993E-2
3.133958608E0,6.352499872E-2,-3.203750029E-2,-1.072499994E-2
3.136464435E0,1.099999994E-2,-2.474999987E-2,-3.437499981E-3
3.138970894E0,-4.152499884E-2,-2.749999985E-3,1.127499994E-2
3.141478510E0,-8.676250279E-2,1.196249947E-2,2.227500081E-2
3.143984973E0,-1.123374999E-1,1.924999990E-2,2.461249940E-2
3.146490819E0,-1.123374999E-1,2.667500079E-2,1.856249943E-2
3.148997279E0,-9.033749998E-2,3.148749843E-2,8.799999952E-3
3.151504664E0,-5.733750015E-2,3.396249935E-2,-3.437499981E-3
3.154011127E0,-2.199999988E-2,2.172499895E-2,-1.567500085E-2
3.156516973E0,1.594999991E-2,7.012499962E-3,-2.172499895E-2
3.159023510E0,4.895000160E-2,-7.562499959E-3,-2.296249941E-2
3.161530817E0,7.947500050E-2,-2.227500081E-2,-1.938750036E-2
3.164037358E0,1.112374961E-1,-2.956249937E-2,-1.072499994E-2
3.166543132E0,1.368124932E-1,-3.203750029E-2,-7.149999961E-3
3.169049669E0,1.380500048E-1,-3.327500075E-2,-3.437499981E-3
3.171557053E0,1.124750003E-1,-3.079999983E-2,-4.674999975E-3
3.174063748E0,6.599999964E-2,-3.203750029E-2,2.749999985E-4
3.176569372E0,4.949999973E-3,-2.598750032E-2,5.087499972E-3
3.179076062E0,-5.128749833E-2,-1.127499994E-2,1.251249947E-2
3.181583447E0,-9.776250273E-2,5.774999969E-3,2.103750035E-2
3.184089987E0,-1.148125008E-1,2.543750033E-2,2.103750035E-2
3.186595772E0,-1.062875018E-1,3.519999981E-2,1.608750038E-2
3.189102308E0,-7.933750004E-2,3.753750026E-2,3.849999979E-3
3.191609616E0,-4.757500067E-2,2.901249938E-2,-7.149999961E-3
3.194116156E0,-1.099999994E-2,1.072499994E-2,-1.814999990E-2
3.196621930E0,2.076249942E-2,-1.512499992E-3,-2.419999987E-2
3.199128467E0,5.499999970E-2,-6.324999966E-3,-2.172499895E-2
3.201635852E0,8.923749626E-2,-1.374999993E-2,-1.814999990E-2
3.204142546E0,1.185249984E-1,-2.956249937E-2,-1.196249947E-2
3.206648146E0,1.392875016E-1,-4.056249931E-2,-9.487500414E-3
3.209154837E0,1.355749965E-1,-4.056249931E-2,-9.487500414E-3
3.211662221E0,1.014750004E-1,-3.808749840E-2,-4.674999975E-3
3.214168685E0,5.018749833E-2,-2.474999987E-2,1.512499992E-3
3.216674517E0,-1.223750040E-2,-8.799999952E-3,8.799999952E-3
3.219180976E0,-7.204999775E-2,-2.749999985E-4,1.732499897E-2
3.221688361E0,-1.123374999E-1,9.487500414E-3,1.856249943E-2
3.224194901E0,-1.208624989E-1,2.172499895E-2,1.608750038E-2
3.226700690E0,-1.013374999E-1,3.272499889E-2,1.003750041E-2
3.229207226E0,-6.599999964E-2,4.248749837E-2,1.512499992E-3
3.231714611E0,-3.423750028E-2,3.753750026E-2,-1.319999993E-2
3.234221074E0,1.237499993E-3,1.801249944E-2,-2.172499895E-2
3.236726916E0,3.547500074E-2,-6.324999966E-3,-2.791249938E-2
3.239233375E0,7.699999958E-2,-2.351249941E-2,-2.296249941E-2
3.241740760E0,1.209999993E-1,-3.698749840E-2,-1.938750036E-2
3.244247454E0,1.502874941E-1,-4.908749834E-2,-1.196249947E-2
3.246753074E0,1.527625024E-1,-5.032499880E-2,-4.674999975E-3
3.249259765E0,1.209999993E-1,-3.575000167E-2,2.749999985E-4
3.251767149E0,6.228749827E-2,-2.474999987E-2,8.799999952E-3
3.254273690E0,-3.574999981E-3,-1.608750038E-2,1.127499994E-2
3.256779444E0,-6.352499872E-2,-1.251249947E-2,1.361249946E-2
3.259285980E0,-1.050499976E-1,-7.562499959E-3,1.608750038E-2
3.261793365E0,-1.197625026E-1,1.677500084E-2,1.484999992E-2
3.264299829E0,-1.075249985E-1,3.753750026E-2,1.484999992E-2
3.266805656E0,-8.552499861E-2,4.977500066E-2,8.799999952E-3
3.269312115E0,-5.609999970E-2,4.372499883E-2,-2.199999988E-3
3.271819500E0,-2.076249942E-2,2.048750035E-2,-1.814999990E-2
3.274326194E0,2.447500080E-2,-1.003750041E-2,-2.914999984E-2
3.276831796E0,7.699999958E-2,-2.708750032E-2,-3.024999984E-2
3.279338486E0,1.295250058E-1,-2.474999987E-2,-2.791249938E-2
3.281845871E0,1.685750037E-1,-3.575000167E-2,-2.048750035E-2
3.284352334E0,1.710499972E-1,-4.551250115E-2,-1.319999993E-2
3.286858189E0,1.344749928E-1,-4.551250115E-2,-5.912499968E-3
3.289364726E0,6.847500056E-2,-3.451250121E-2,3.849999979E-3
3.291872033E0,-4.812499974E-3,-2.227500081E-2,1.484999992E-2
3.294378574E0,-6.352499872E-2,-6.324999966E-3,1.856249943E-2
3.296884339E0,-9.652499855E-2,4.674999975E-3,1.608750038E-2
3.299390876E0,-1.050499976E-1,2.048750035E-2,1.361249946E-2
3.301898260E0,-9.776250273E-2,3.272499889E-2,7.562499959E-3
3.304404955E0,-8.181250095E-2,3.877500072E-2,3.849999979E-3
3.306910550E0,-6.104999781E-2,4.001250118E-2,-2.199999988E-3
3.309417240E0,-3.299999982E-2,2.172499895E-2,-1.196249947E-2
3.311924625E0,1.099999994E-2,-3.987499978E-3,-1.814999990E-2
3.314431088E0,6.723749638E-2,-2.598750032E-2,-2.048750035E-2
3.316936921E0,1.247124970E-1,-3.203750029E-2,-1.567500085E-2
3.319443380E0,1.588124931E-1,-3.808749840E-2,-9.487500414E-3
3.321950765E0,1.539999992E-1,-4.179999977E-2,-3.437499981E-3
3.324457305E0,1.099999994E-1,-4.675000161E-2,5.087499972E-3
3.326963022E0,4.276249930E-2,-3.575000167E-2,1.127499994E-2
3.329469558E0,-2.323750034E-2,-2.227500081E-2,1.856249943E-2
3.331976943E0,-7.576250285E-2,-7.562499959E-3,1.979999989E-2
3.334483637E0,-9.404999763E-2,5.774999969E-3,1.361249946E-2
3.336989262E0,-8.676250279E-2,2.048750035E-2,7.562499959E-3
3.339495953E0,-6.833750010E-2,3.519999981E-2,-9.624999948E-4
3.342003337E0,-4.757500067E-2,4.124999791E-2,-8.387500420E-3
3.344509801E0,-3.176249936E-2,4.001250118E-2,-2.048750035E-2
3.347015647E0,-1.457499992E-2,2.296249941E-2,-2.667500079E-2
3.349522106E0,1.718750037E-2,-3.987499978E-3,-2.914999984E-2
3.352029491E0,6.599999964E-2,-2.708750032E-2,-2.419999987E-2
3.354536032E0,1.197625026E-1,-4.056249931E-2,-1.814999990E-2
3.357041780E0,1.490499973E-1,-5.403750017E-2,-1.319999993E-2
3.359548316E0,1.405249983E-1,-5.156249925E-2,2.749999985E-4
3.362055701E0,8.799999952E-2,-2.832499892E-2,8.799999952E-3
3.364562164E0,1.828750037E-2,-1.374999993E-2,1.732499897E-2
3.367068021E0,-4.523750022E-2,-5.087499972E-3,1.856249943E-2
3.369574480E0,-8.552499861E-2,-6.324999966E-3,1.251249947E-2
3.372081865E0,-9.776250273E-2,-2.749999985E-3,8.799999952E-3
3.374588559E0,-8.799999952E-2,1.801249944E-2,5.087499972E-3
3.377094208E0,-6.599999964E-2,4.001250118E-2,3.849999979E-3
3.379600899E0,-4.633750021E-2,4.853750020E-2,-9.624999948E-4
3.382108283E0,-2.804999985E-2,4.248749837E-2,-1.196249947E-2
3.384614824E0,-3.574999981E-3,1.196249947E-2,-2.172499895E-2
3.387120612E0,3.671250120E-2,-1.979999989E-2,-2.667500079E-2
3.389627149E0,8.923749626E-2,-3.327500075E-2,-2.172499895E-2
3.392134533E0,1.392875016E-1,-3.698749840E-2,-1.567500085E-2
3.394640997E0,1.612875015E-1,-4.303750023E-2,-4.674999975E-3
3.397146833E0,1.380500048E-1,-4.551250115E-2,5.087499972E-3
3.399653292E0,7.576250285E-2,-3.698749840E-2,1.361249946E-2
3.402160677E0,-4.812499974E-3,-2.832499892E-2,2.461249940E-2
3.404667371E0,-7.452499866E-2,-1.732499897E-2,2.461249940E-2
3.407172982E0,-1.135749966E-1,-3.987499978E-3,2.337500080E-2
3.409679672E0,-1.172875017E-1,1.319999993E-2,1.856249943E-2
3.412187057E0,-9.404999763E-2,3.024999984E-2,1.003750041E-2
3.414693597E0,-6.833750010E-2,4.372499883E-2,2.612499986E-3
3.417199136E0,-4.881250113E-2,4.496249929E-2,-7.149999961E-3
3.419705903E0,-2.681249939E-2,3.024999984E-2,-1.691249944E-2
3.422213211E0,8.524999954E-3,7.012499962E-3,-2.667500079E-2
3.424719751E0,5.995000154E-2,-1.856249943E-2,-2.914999984E-2
3.427225612E0,1.185249984E-1,-3.203750029E-2,-2.791249938E-2
3.429732072E0,1.625249982E-1,-3.932499886E-2,-1.938750036E-2
3.432239456E0,1.673374921E-1,-5.156249925E-2,-7.149999961E-3
3.434746151E0,1.234750003E-1,-5.279999971E-2,5.087499972E-3
3.437251766E0,4.647500068E-2,-3.203750029E-2,2.103750035E-2
3.439758456E0,-3.533750027E-2,-1.608750038E-2,3.079999983E-2
3.442265841E0,-9.776250273E-2,-1.374999993E-2,2.956249937E-2
3.444772305E0,-1.220999956E-1,-3.987499978E-3,2.103750035E-2
3.447278136E0,-1.123374999E-1,1.319999993E-2,1.251249947E-2
3.449784595E0,-8.552499861E-2,3.753750026E-2,5.087499972E-3
3.452291980E0,-5.981250107E-2,5.596249923E-2,-3.437499981E-3
3.454798520E0,-3.781250119E-2,5.348749831E-2,-1.196249947E-2
3.457304300E0,-1.347499993E-2,1.924999990E-2,-2.172499895E-2
3.459810836E0,2.928750031E-2,-1.856249943E-2,-2.914999984E-2
3.462318221E0,8.428750187E-2,-4.303750023E-2,-2.667500079E-2
3.464824684E0,1.368124932E-1,-4.056249931E-2,-2.172499895E-2
3.467330559E0,1.662375033E-1,-5.032499880E-2,-1.072499994E-2
3.469837250E0,1.442375034E-1,-5.403750017E-2,2.612499986E-3
3.472344634E0,7.576250285E-2,-3.698749840E-2,1.732499897E-2
3.474851098E0,-1.223750040E-2,-2.103750035E-2,2.832499892E-2
3.477356953E0,-8.428750187E-2,-1.251249947E-2,3.079999983E-2
3.479863413E0,-1.208624989E-1,-2.749999985E-4,2.461249940E-2
3.482370797E0,-1.172875017E-1,1.196249947E-2,1.251249947E-2
3.484877338E0,-8.799999952E-2,2.667500079E-2,5.087499972E-3
3.487383175E0,-5.499999970E-2,4.496249929E-2,-3.437499981E-3
3.489889711E0,-2.681249939E-2,4.853750020E-2,-1.443750039E-2
3.492397096E0,0.000000000E0,3.272499889E-2,-2.667500079E-2
3.494903790E0,3.423750028E-2,-2.749999985E-3,-3.396249935E-2
3.497409401E0,7.452499866E-2,-3.327500075E-2,-3.148749843E-2
3.499916091E0,1.197625026E-1,-4.427500069E-2,-2.667500079E-2
3.502423476E0,1.442375034E-1,-5.403750017E-2,-1.196249947E-2
3.504929939E0,1.319999993E-1,-5.884999782E-2,5.087499972E-3
3.507435756E0,7.823749632E-2,-4.056249931E-2,1.979999989E-2
3.509942216E0,3.712499980E-3,-1.374999993E-2,2.956249937E-2
3.512449600E0,-6.599999964E-2,-5.087499972E-3,2.956249937E-2
3.514956141E0,-1.050499976E-1,-2.749999985E-3,1.856249943E-2
3.517461935E0,-1.087625027E-1,3.437499981E-3,3.849999979E-3
3.519968472E0,-8.428750187E-2,1.924999990E-2,-3.437499981E-3
3.522475856E0,-5.376249924E-2,4.496249929E-2,-9.487500414E-3
3.524982320E0,-3.052499890E-2,5.101250112E-2,-1.072499994E-2
3.527488098E0,-6.049999967E-3,3.519999981E-2,-1.443750039E-2
3.529994635E0,2.199999988E-2,-2.749999985E-4,-2.172499895E-2
3.532502019E0,6.228749827E-2,-3.575000167E-2,-2.172499895E-2
3.535008713E0,1.087625027E-1,-4.784999788E-2,-1.691249944E-2
3.537514315E0,1.430000067E-1,-4.675000161E-2,-5.912499968E-3
3.540021005E0,1.380500048E-1,-4.784999788E-2,1.003750041E-2
3.542528390E0,8.552499861E-2,-4.303750023E-2,2.337500080E-2
3.545034853E0,7.424999960E-3,-2.956249937E-2,2.956249937E-2
3.547540680E0,-6.957499683E-2,-1.856249943E-2,3.203750029E-2
3.550047140E0,-1.148125008E-1,-7.562499959E-3,2.584999986E-2
3.552554602E0,-1.258125007E-1,9.487500414E-3,1.484999992E-2
3.555061065E0,-1.050499976E-1,2.901249938E-2,5.087499972E-3
3.557566911E0,-7.204999775E-2,4.853750020E-2,-5.912499968E-3
3.560073371E0,-3.533750027E-2,5.719999969E-2,-1.567500085E-2
3.562580755E0,2.474999987E-3,3.272499889E-2,-2.543750033E-2
3.565087219E0,4.399999976E-2,-3.987499978E-3,-3.396249935E-2
3.567593079E0,8.799999952E-2,-3.698749840E-2,-3.148749843E-2
3.570099769E0,1.307625026E-1,-4.908749834E-2,-2.543750033E-2
3.572607154E0,1.575749964E-1,-5.403750017E-2,-1.443750039E-2
3.575113618E0,1.502874941E-1,-6.256250292E-2,2.749999985E-4
3.577619450E0,9.776250273E-2,-4.427500069E-2,1.484999992E-2
3.580125909E0,1.594999991E-2,-2.351249941E-2,2.584999986E-2
3.582633294E0,-6.228749827E-2,-1.127499994E-2,2.832499892E-2
3.585139834E0,-1.098624989E-1,-1.512499992E-3,2.103750035E-2
3.587645628E0,-1.258125007E-1,1.319999993E-2,1.251249947E-2
3.590152164E0,-1.135749966E-1,2.419999987E-2,5.087499972E-3
3.592659549E0,-8.552499861E-2,4.372499883E-2,-9.624999948E-4
3.595166243E0,-4.633750021E-2,5.348749831E-2,-9.487500414E-3
3.597671858E0,-2.474999987E-3,3.396249935E-2,-1.567500085E-2
3.600178318E0,4.276249930E-2,-8.799999952E-3,-2.172499895E-2
3.602685703E0,9.281250089E-2,-4.675000161E-2,-2.172499895E-2
3.605192397E0,1.380500048E-1,-5.884999782E-2,-1.691249944E-2
3.607698021E0,1.673374921E-1,-5.403750017E-2,-7.149999961E-3
3.610204712E0,1.552374959E-1,-5.032499880E-2,7.562499959E-3
3.612712096E0,9.776250273E-2,-3.575000167E-2,1.484999992E-2
3.615218637E0,1.347499993E-2,-2.708750032E-2,2.103750035E-2
3.617724416E0,-6.599999964E-2,-2.598750032E-2,2.461249940E-2
3.620230952E0,-1.148125008E-1,-1.127499994E-2,2.103750035E-2
3.622738337E0,-1.233374998E-1,9.487500414E-3,1.484999992E-2
3.625245031E0,-1.062875018E-1,3.148749843E-2,8.799999952E-3
3.627750652E0,-7.576250285E-2,5.101250112E-2,1.512499992E-3
3.630257111E0,-4.523750022E-2,5.719999969E-2,-1.319999993E-2
3.632764727E0,-6.187499966E-3,2.777500078E-2,-2.543750033E-2
3.635271190E0,3.781250119E-2,-1.374999993E-2,-3.396249935E-2
3.637776782E0,9.652499855E-2,-4.179999977E-2,-3.272499889E-2
3.640283472E0,1.502874941E-1,-5.156249925E-2,-3.024999984E-2
3.642790857E0,1.795749962E-1,-5.527500063E-2,-2.172499895E-2
3.645297397E0,1.600500047E-1,-6.132499874E-2,-4.674999975E-3
3.647803146E0,9.157499671E-2,-3.575000167E-2,8.799999952E-3
3.650309683E0,-2.474999987E-3,-1.484999992E-2,2.103750035E-2
3.652817067E0,-8.071249723E-2,-7.562499959E-3,2.832499892E-2
3.655323531E0,-1.222374961E-1,9.624999948E-4,2.227500081E-2
3.657829377E0,-1.245749965E-1,5.912499968E-3,1.484999992E-2
3.660335837E0,-1.014750004E-1,2.172499895E-2,7.562499959E-3
3.662843452E0,-6.599999964E-2,4.619999975E-2,2.749999985E-4
3.665349916E0,-3.052499890E-2,5.101250112E-2,-8.249999955E-3
3.667855777E0,7.287499961E-3,2.543750033E-2,-1.924999990E-2
3.670362236E0,5.623750016E-2,-1.732499897E-2,-2.901249938E-2
3.672869621E0,1.087625027E-1,-5.527500063E-2,-3.024999984E-2
3.675376084E0,1.588124931E-1,-6.008749828E-2,-2.296249941E-2
3.677881901E0,1.795749962E-1,-5.884999782E-2,-1.072499994E-2
3.680388360E0,1.563374996E-1,-5.279999971E-2,5.087499972E-3
3.682895745E0,8.428750187E-2,-4.056249931E-2,1.856249943E-2
3.685402285E0,-6.187499966E-3,-2.832499892E-2,2.708750032E-2
3.687908035E0,-8.428750187E-2,-2.351249941E-2,2.956249937E-2
3.690414572E0,-1.245749965E-1,-1.127499994E-2,2.103750035E-2
3.692921957E0,-1.222374961E-1,1.196249947E-2,1.361249946E-2
3.695428651E0,-9.776250273E-2,3.396249935E-2,6.324999966E-3
3.697934241E0,-6.476250291E-2,5.348749831E-2,-3.437499981E-3
3.700440932E0,-3.299999982E-2,5.101250112E-2,-1.443750039E-2
3.702948316E0,-1.237499993E-3,1.924999990E-2,-2.543750033E-2
3.705454857E0,4.276249930E-2,-2.584999986E-2,-3.272499889E-2
3.707960626E0,1.038125008E-1,-5.156249925E-2,-3.272499889E-2
3.710467085E0,1.625249982E-1,-5.761250108E-2,-2.901249938E-2
3.712974470E0,1.893374920E-1,-6.503749639E-2,-1.924999990E-2
3.715481011E0,1.660999954E-1,-6.256250292E-2,-5.912499968E-3
3.717986780E0,9.157499671E-2,-3.451250121E-2,7.562499959E-3
3.720493316E0,-4.949999973E-3,-1.003750041E-2,1.608750038E-2
3.723000701E0,-8.552499861E-2,-5.087499972E-3,1.732499897E-2
3.725507395E0,-1.307625026E-1,-2.749999985E-4,1.127499994E-2
3.728012997E0,-1.307625026E-1,7.012499962E-3,7.562499959E-3
3.730519687E0,-1.087625027E-1,2.667500079E-2,7.562499959E-3
3.733027071E0,-7.204999775E-2,4.619999975E-2,5.087499972E-3
3.735533535E0,-4.028749838E-2,4.619999975E-2,1.512499992E-3
3.738039415E0,-9.762499481E-3,1.567500085E-2,-9.487500414E-3
3.740545875E0,3.176249936E-2,-2.832499892E-2,-1.924999990E-2
3.743053259E0,9.528750181E-2,-6.008749828E-2,-2.419999987E-2
3.745559800E0,1.563374996E-1,-6.256250292E-2,-1.924999990E-2
3.748065559E0,1.918125004E-1,-5.156249925E-2,-1.072499994E-2
3.750572096E0,1.758625060E-1,-5.032499880E-2,-2.199999988E-3
3.753079480E0,1.111000031E-1,-4.303750023E-2,6.324999966E-3
3.755586174E0,1.347499993E-2,-3.808749840E-2,1.003750041E-2
3.758091795E0,-7.576250285E-2,-2.956249937E-2,1.608750038E-2
3.760598485E0,-1.282874942E-1,-7.562499959E-3,1.361249946E-2
3.763105639E0,-1.368124932E-1,2.543750033E-2,1.003750041E-2
3.765612333E0,-1.112374961E-1,4.248749837E-2,6.324999966E-3
3.768118198E0,-7.452499866E-2,4.977500066E-2,-2.199999988E-3
3.770624658E0,-3.671250120E-2,4.248749837E-2,-1.443750039E-2
3.773132043E0,3.712499980E-3,9.487500414E-3,-2.667500079E-2
3.775638583E0,5.252499878E-2,-2.584999986E-2,-3.272499889E-2
3.778144352E0,1.099999994E-1,-4.784999788E-2,-3.272499889E-2
3.780650879E0,1.673374921E-1,-5.651250109E-2,-3.519999981E-2
3.783158263E0,1.978625059E-1,-7.851249725E-2,-2.419999987E-2
3.785664727E0,1.808124930E-1,-7.108750194E-2,-1.319999993E-2
3.788170573E0,1.087625027E-1,-4.303750023E-2,3.849999979E-3
3.790677019E0,7.287499961E-3,-2.832499892E-2,1.979999989E-2
3.793184403E0,-8.181250095E-2,-1.856249943E-2,2.584999986E-2
3.795691098E0,-1.355749965E-1,-1.251249947E-2,2.461249940E-2
3.798196713E0,-1.430000067E-1,-1.512499992E-3,2.103750035E-2
3.800703451E0,-1.160499975E-1,1.924999990E-2,1.732499897E-2
3.803210836E0,-7.823749632E-2,4.124999791E-2,1.003750041E-2
3.805717376E0,-4.895000160E-2,4.496249929E-2,2.749999985E-4
3.808223146E0,-2.323750034E-2,2.419999987E-2,-1.567500085E-2
3.810729667E0,1.457499992E-2,-8.799999952E-3,-2.901249938E-2
3.813237052E0,7.699999958E-2,-4.179999977E-2,-3.519999981E-2
3.815743515E0,1.428624988E-1,-5.403750017E-2,-3.519999981E-2
3.818249361E0,1.918125004E-1,-5.651250109E-2,-2.667500079E-2
3.820755807E0,1.905750036E-1,-6.503749639E-2,-1.196249947E-2
3.823263192E0,1.318625063E-1,-6.132499874E-2,2.749999985E-3
3.825769886E0,3.547500074E-2,-3.575000167E-2,1.251249947E-2
3.828275501E0,-5.871250108E-2,-2.103750035E-2,2.227500081E-2
3.830782206E0,-1.222374961E-1,-5.087499972E-3,2.103750035E-2
3.833289590E0,-1.453374922E-1,8.249999955E-3,1.251249947E-2
3.835796342E0,-1.295250058E-1,1.924999990E-2,6.324999966E-3
3.838303161E0,-9.776250273E-2,3.024999984E-2,1.512499992E-3
3.840808463E0,-6.723749638E-2,4.001250118E-2,-3.437499981E-3
3.843315846E0,-4.152499884E-2,2.901249938E-2,-7.149999961E-3
3.845822310E0,-7.287499961E-3,-2.749999985E-4,-1.567500085E-2
3.848328156E0,4.881250113E-2,-3.079999983E-2,-2.172499895E-2
3.850834601E0,1.220999956E-1,-5.279999971E-2,-2.296249941E-2
3.853341986E0,1.832875013E-1,-5.651250109E-2,-2.172499895E-2
3.855848680E0,2.040500045E-1,-6.256250292E-2,-1.924999990E-2
3.858354296E0,1.710499972E-1,-5.761250108E-2,-9.487500414E-3
3.860861000E0,8.676250279E-2,-4.056249931E-2,2.749999985E-4
3.863368385E0,-1.718750037E-2,-2.227500081E-2,1.003750041E-2
3.865874925E0,-1.025749967E-1,-1.374999993E-2,1.732499897E-2
3.868380694E0,-1.453374922E-1,2.199999988E-3,1.732499897E-2
3.870887222E0,-1.430000067E-1,1.801249944E-2,1.251249947E-2
3.873394606E0,-1.124750003E-1,3.272499889E-2,8.799999952E-3
3.875901070E0,-7.576250285E-2,4.248749837E-2,1.512499992E-3
3.878406916E0,-4.523750022E-2,3.767500073E-2,-7.149999961E-3
3.880913376E0,-1.099999994E-2,8.249999955E-3,-1.814999990E-2
3.883420760E0,3.904999793E-2,-2.708750032E-2,-2.667500079E-2
3.885927455E0,1.135749966E-1,-5.032499880E-2,-3.024999984E-2
3.888433070E0,1.820500046E-1,-6.256250292E-2,-3.148749843E-2
3.890939779E0,2.173874974E-1,-7.479999959E-2,-2.667500079E-2
3.893447164E0,1.942874938E-1,-6.984999776E-2,-1.567500085E-2
3.895953627E0,1.099999994E-1,-5.156249925E-2,2.749999985E-4
3.898459474E0,-1.237499993E-3,-3.575000167E-2,1.608750038E-2
3.900966005E0,-1.002374962E-1,-2.351249941E-2,2.584999986E-2
3.903473390E0,-1.490499973E-1,-1.003750041E-2,2.461249940E-2
3.905979853E0,-1.527625024E-1,3.437499981E-3,2.103750035E-2
3.908485699E0,-1.245749965E-1,1.924999990E-2,1.361249946E-2
3.910992144E0,-8.923749626E-2,3.877500072E-2,5.087499972E-3
3.913499529E0,-5.995000154E-2,4.977500066E-2,-4.674999975E-3
3.916006223E0,-3.671250120E-2,3.272499889E-2,-1.814999990E-2
3.918511838E0,-0.000000000E0,-2.749999985E-3,-3.148749843E-2
3.921018544E0,5.981250107E-2,-4.056249931E-2,-4.124999791E-2
3.923525928E0,1.355749965E-1,-5.884999782E-2,-4.619999975E-2
3.926032392E0,2.003374994E-1,-7.232499868E-2,-4.619999975E-2
3.928538238E0,2.088624984E-1,-8.084999770E-2,-3.396249935E-2
3.931044673E0,1.563374996E-1,-6.008749828E-2,-1.443750039E-2
3.933552058E0,5.252499878E-2,-2.708750032E-2,3.849999979E-3
3.936058598E0,-4.895000160E-2,-6.324999966E-3,1.732499897E-2
3.938564368E0,-1.197625026E-1,-3.987499978E-3,1.732499897E-2
3.941070899E0,-1.442375034E-1,-1.512499992E-3,8.799999952E-3
3.943578284E0,-1.295250058E-1,9.624999948E-4,2.749999985E-3
3.946084978E0,-1.014750004E-1,2.419999987E-2,1.512499992E-3
3.948590594E0,-8.071249723E-2,4.248749837E-2,5.087499972E-3
3.951097279E0,-6.599999964E-2,4.124999791E-2,5.087499972E-3
3.953604663E0,-4.523750022E-2,1.072499994E-2,2.749999985E-4
3.956111127E0,4.812499974E-3,-2.956249937E-2,-1.319999993E-2
3.958616973E0,8.910000324E-2,-5.403750017E-2,-2.419999987E-2
3.961123404E0,1.710499972E-1,-5.403750017E-2,-3.024999984E-2
3.963630788E0,2.173874974E-1,-4.179999977E-2,-3.148749843E-2
3.966137329E0,1.991000026E-1,-4.179999977E-2,-2.543750033E-2
3.968643098E0,1.208624989E-1,-4.056249931E-2,-1.443750039E-2
3.971149635E0,1.347499993E-2,-3.684999794E-2,-4.674999975E-3
3.973657019E0,-8.676250279E-2,-2.708750032E-2,1.003750041E-2
3.976163483E0,-1.465750039E-1,-1.003750041E-2,1.856249943E-2
3.978669329E0,-1.588124931E-1,2.048750035E-2,2.227500081E-2
3.981175808E0,-1.392875016E-1,3.643750027E-2,2.227500081E-2
3.983683424E0,-1.124750003E-1,4.867500067E-2,1.608750038E-2
3.986189887E0,-8.799999952E-2,4.743750021E-2,2.749999985E-3
3.988695733E0,-5.871250108E-2,2.048750035E-2,-1.196249947E-2
3.991202183E0,-4.949999973E-3,-1.608750038E-2,-2.791249938E-2
3.993709568E0,7.576250285E-2,-3.932499886E-2,-3.643750027E-2
3.996216108E0,1.636250019E-1,-4.675000161E-2,-4.001250118E-2
3.998721877E0,2.260500044E-1,-6.256250292E-2,-4.248749837E-2
4.001228394E0,2.345750034E-1,-7.232499868E-2,-3.643750027E-2
4.003735778E0,1.735250056E-1,-5.884999782E-2,-2.296249941E-2
4.006242473E0,6.833750010E-2,-3.451250121E-2,-7.149999961E-3
4.008748088E0,-3.671250120E-2,-2.351249941E-2,8.799999952E-3
4.011254807E0,-1.172875017E-1,-1.251249947E-2,1.608750038E-2
4.013761961E0,-1.490499973E-1,-3.987499978E-3,1.856249943E-2
4.016268656E0,-1.442375034E-1,9.487500414E-3,1.979999989E-2
4.018774271E0,-1.234750003E-1,2.901249938E-2,1.979999989E-2
4.021280980E0,-1.025749967E-1,4.372499883E-2,1.732499897E-2
4.023788365E0,-8.552499861E-2,4.619999975E-2,5.087499972E-3
4.026294905E0,-5.499999970E-2,1.567500085E-2,-9.487500414E-3
4.028800675E0,2.474999987E-3,-2.227500081E-2,-2.419999987E-2
4.031307225E0,8.552499861E-2,-5.279999971E-2,-3.396249935E-2
4.033814610E0,1.698125005E-1,-5.651250109E-2,-3.767500073E-2
4.036321304E0,2.173874974E-1,-5.761250108E-2,-3.396249935E-2
4.038826919E0,2.003374994E-1,-6.503749639E-2,-2.048750035E-2
4.041333610E0,1.208624989E-1,-5.403750017E-2,-5.912499968E-3
4.043840994E0,1.457499992E-2,-3.932499886E-2,3.849999979E-3
4.046347458E0,-7.452499866E-2,-2.832499892E-2,1.608750038E-2
4.048853304E0,-1.222374961E-1,-1.251249947E-2,1.484999992E-2
4.051359764E0,-1.197625026E-1,9.487500414E-3,1.003750041E-2
4.053867129E0,-9.776250273E-2,2.543750033E-2,5.087499972E-3
4.056373670E0,-7.947500050E-2,3.643750027E-2,-9.624999948E-4
4.058879439E0,-7.452499866E-2,4.248749837E-2,-8.249999955E-3
4.061385898E0,-7.204999775E-2,3.024999984E-2,-1.443750039E-2
4.063893360E0,-4.771250114E-2,-2.749999985E-3,-1.691249944E-2
4.066400054E0,1.581249945E-2,-3.327500075E-2,-2.543750033E-2
4.068905670E0,1.025749967E-1,-5.651250109E-2,-3.024999984E-2
4.071412360E0,1.722874939E-1,-7.851249725E-2,-3.024999984E-2
4.073919769E0,1.978625059E-1,-6.627500057E-2,-2.419999987E-2
4.076426232E0,1.563374996E-1,-3.203750029E-2,-1.443750039E-2
4.078932078E0,7.328750193E-2,-1.003750041E-2,-3.437499981E-3
4.081438538E0,-2.076249942E-2,-1.127499994E-2,2.749999985E-3
4.083945904E0,-9.528750181E-2,-1.856249943E-2,2.749999985E-4
4.086452367E0,-1.258125007E-1,-1.856249943E-2,1.512499992E-3
4.088958213E0,-1.185249984E-1,8.249999955E-3,2.749999985E-3
4.091464673E0,-9.652499855E-2,3.767500073E-2,6.324999966E-3
4.093972129E0,-7.576250285E-2,4.977500066E-2,1.127499994E-2
4.096478593E0,-6.352499872E-2,4.001250118E-2,5.087499972E-3
4.098984439E0,-3.904999793E-2,9.624999948E-4,-2.199999988E-3
4.101491129E0,9.762499481E-3,-4.784999788E-2,-1.072499994E-2
4.103998297E0,8.304999769E-2,-6.751249731E-2,-1.567500085E-2
4.106504992E0,1.600500047E-1,-5.527500063E-2,-1.567500085E-2
4.109010838E0,2.003374994E-1,-3.451250121E-2,-1.814999990E-2
4.111517297E0,1.783374995E-1,-2.708750032E-2,-1.691249944E-2
4.114024682E0,9.652499855E-2,-3.808749840E-2,-1.443750039E-2
4.116531222E0,-6.187499966E-3,-4.675000161E-2,-4.674999975E-3
4.119036992E0,-9.281250089E-2,-3.575000167E-2,3.849999979E-3
4.121543528E0,-1.380500048E-1,-8.799999952E-3,1.484999992E-2
4.124050860E0,-1.344749928E-1,2.543750033E-2,1.608750038E-2
4.126557400E0,-1.099999994E-1,4.248749837E-2,1.127499994E-2
4.129063169E0,-8.923749626E-2,3.877500072E-2,6.324999966E-3
4.131569937E0,-7.823749632E-2,3.148749843E-2,-5.912499968E-3
4.134077105E0,-5.747500062E-2,1.443750039E-2,-1.443750039E-2
4.136583799E0,-1.099999994E-2,-1.484999992E-2,-2.296249941E-2
4.139089414E0,6.476250291E-2,-4.056249931E-2,-2.543750033E-2
4.141596105E0,1.526249945E-1,-5.884999782E-2,-2.667500079E-2
4.144103475E0,2.125750035E-1,-7.356250286E-2,-2.901249938E-2
4.146609939E0,2.125750035E-1,-8.084999770E-2,-1.691249944E-2
4.149115785E0,1.440999955E-1,-6.627500057E-2,-2.199999988E-3
4.151622321E0,3.781250119E-2,-4.427500069E-2,1.484999992E-2
4.154129701E0,-6.228749827E-2,-3.684999794E-2,2.461249940E-2
4.156636164E0,-1.160499975E-1,-2.351249941E-2,2.227500081E-2
4.159142011E0,-1.270499974E-1,-6.324999966E-3,1.484999992E-2
4.161648470E0,-1.075249985E-1,8.249999955E-3,7.562499959E-3
4.164155855E0,-8.304999769E-2,2.667500079E-2,5.087499972E-3
4.166662549E0,-7.218749821E-2,4.248749837E-2,1.512499992E-3
4.169168165E0,-6.847500056E-2,3.272499889E-2,-4.674999975E-3
4.171674855E0,-5.128749833E-2,-2.749999985E-3,-1.196249947E-2
4.174182249E0,7.287499961E-3,-3.575000167E-2,-1.801249944E-2
4.176688790E0,9.157499671E-2,-5.279999971E-2,-2.172499895E-2
4.179194559E0,1.710499972E-1,-5.884999782E-2,-2.667500079E-2
4.181701096E0,2.028124928E-1,-6.861250103E-2,-2.172499895E-2
4.184208388E0,1.698125005E-1,-6.132499874E-2,-1.196249947E-2
4.186714929E0,8.304999769E-2,-4.179999977E-2,-9.624999948E-4
4.189220698E0,-2.076249942E-2,-2.956249937E-2,8.799999952E-3
4.191727234E0,-9.652499855E-2,-2.103750035E-2,1.127499994E-2
4.194234634E0,-1.295250058E-1,-2.749999985E-3,7.562499959E-3
4.196741328E0,-1.222374961E-1,9.487500414E-3,3.849999979E-3
4.199246944E0,-9.899999946E-2,2.543750033E-2,1.512499992E-3
4.201753634E0,-7.576250285E-2,4.372499883E-2,2.749999985E-4
4.204261019E0,-5.871250108E-2,4.372499883E-2,-7.149999961E-3
4.206767559E0,-3.176249936E-2,1.567500085E-2,-1.567500085E-2
4.209273328E0,1.828750037E-2,-2.956249937E-2,-2.543750033E-2
4.211779865E0,9.033749998E-2,-6.379999965E-2,-3.148749843E-2
4.214287269E0,1.636250019E-1,-7.727500051E-2,-3.272499889E-2
4.216793732E0,2.040500045E-1,-7.727500051E-2,-2.791249938E-2
4.219299578E0,1.831499934E-1,-6.256250292E-2,-1.691249944E-2
4.221806038E0,1.013374999E-1,-3.575000167E-2,-4.674999975E-3
4.224313407E0,-3.712499980E-3,-2.474999987E-2,1.127499994E-2
4.226820102E0,-9.171249717E-2,-2.227500081E-2,1.608750038E-2
4.229325717E0,-1.357125044E-1,-1.374999993E-2,1.484999992E-2
4.231832407E0,-1.357125044E-1,9.624999948E-4,6.324999966E-3
4.234339768E0,-1.075249985E-1,2.172499895E-2,2.749999985E-3
4.236846232E0,-7.823749632E-2,3.767500073E-2,1.512499992E-3
4.239352078E0,-5.747500062E-2,4.124999791E-2,-2.199999988E-3
4.241858537E0,-3.918749839E-2,1.691249944E-2,-1.072499994E-2
4.244365922E0,-0.000000000E0,-1.979999989E-2,-2.048750035E-2
4.246872482E0,6.833750010E-2,-5.156249925E-2,-2.791249938E-2
4.249378329E0,1.465750039E-1,-6.379999965E-2,-3.024999984E-2
4.251884788E0,1.953874975E-1,-6.627500057E-2,-2.296249941E-2
4.254392173E0,1.843875051E-1,-6.984999776E-2,-9.487500414E-3
4.256898881E0,1.123374999E-1,-5.761250108E-2,5.087499972E-3
4.259404496E0,1.099999994E-2,-4.056249931E-2,1.608750038E-2
4.261911187E0,-7.452499866E-2,-3.079999983E-2,2.103750035E-2
4.264418571E0,-1.209999993E-1,-2.103750035E-2,1.732499897E-2
4.266925021E0,-1.185249984E-1,-2.749999985E-3,1.003750041E-2
4.269430867E0,-9.528750181E-2,8.249999955E-3,1.512499992E-3
4.271937327E0,-7.328750193E-2,3.024999984E-2,-3.437499981E-3
4.274444788E0,-5.871250108E-2,4.619999975E-2,-1.072499994E-2
4.276951252E0,-4.647500068E-2,3.396249935E-2,-1.801249944E-2
4.279457021E0,-1.471249945E-2,-3.849999979E-3,-2.901249938E-2
4.281963557E0,5.004999787E-2,-3.932499886E-2,-3.519999981E-2
4.284470942E0,1.282874942E-1,-5.884999782E-2,-3.767500073E-2
4.286977611E0,1.843875051E-1,-7.479999959E-2,-3.643750027E-2
4.289483227E0,1.893374920E-1,-8.703749627E-2,-2.296249941E-2
4.291989917E0,1.295250058E-1,-6.627500057E-2,-5.912499968E-3
4.294497302E0,3.657500073E-2,-2.584999986E-2,8.799999952E-3
4.297003847E0,-5.499999970E-2,-5.087499972E-3,1.608750038E-2
4.299509616E0,-1.099999994E-1,-3.849999979E-3,1.251249947E-2
4.302016153E0,-1.307625026E-1,-8.799999952E-3,6.324999966E-3
4.304523461E0,-1.234750003E-1,-2.749999985E-3,2.749999985E-3
4.307030025E0,-9.899999946E-2,2.048750035E-2,3.849999979E-3
4.309535794E0,-7.947500050E-2,5.224999785E-2,2.749999985E-3
4.312042331E0,-5.252499878E-2,4.743750021E-2,-4.674999975E-3
4.314549715E0,-1.099999994E-2,2.199999988E-3,-1.691249944E-2
4.317056410E0,5.609999970E-2,-5.032499880E-2,-3.148749843E-2
4.319562025E0,1.355749965E-1,-8.084999770E-2,-3.519999981E-2
4.322068715E0,1.941500008E-1,-7.727500051E-2,-3.396249935E-2
4.324576100E0,2.003374994E-1,-7.479999959E-2,-2.419999987E-2
4.327082564E0,1.440999955E-1,-6.132499874E-2,-5.912499968E-3
4.329588410E0,4.757500067E-2,-3.684999794E-2,7.562499959E-3
4.332094869E0,-5.252499878E-2,-2.351249941E-2,1.732499897E-2
4.334602331E0,-1.197625026E-1,-1.484999992E-2,1.374999993E-2
4.337108785E0,-1.430000067E-1,2.199999988E-3,5.087499972E-3
4.339614631E0,-1.307625026E-1,2.172499895E-2,-4.674999975E-3
4.342121091E0,-1.062875018E-1,3.877500072E-2,-7.149999961E-3
4.344628476E0,-8.195000142E-2,4.977500066E-2,-1.072499994E-2
4.347134924E0,-5.499999970E-2,3.148749843E-2,-1.691249944E-2
4.349640770E0,-1.223750040E-2,-1.003750041E-2,-2.296249941E-2
4.352147461E0,5.252499878E-2,-4.908749834E-2,-3.519999981E-2
4.354654845E0,1.331000030E-1,-6.861250103E-2,-4.001250118E-2
4.357161280E0,1.978625059E-1,-7.961250097E-2,-4.124999791E-2
4.359667126E0,2.161500007E-1,-7.727500051E-2,-2.901249938E-2
4.362173662E0,1.673374921E-1,-6.132499874E-2,-1.319999993E-2
4.364680970E0,6.710000336E-2,-3.932499886E-2,2.749999985E-4
4.367187511E0,-3.671250120E-2,-3.079999983E-2,1.374999993E-2
4.369693280E0,-1.124750003E-1,-2.832499892E-2,1.374999993E-2
4.372199816E0,-1.380500048E-1,-1.374999993E-2,1.003750041E-2
4.374707201E0,-1.332374960E-1,5.912499968E-3,7.562499959E-3
4.377213881E0,-1.099999994E-1,2.543750033E-2,7.562499959E-3
4.379719497E0,-9.171249717E-2,4.124999791E-2,6.324999966E-3
4.382226187E0,-7.452499866E-2,3.877500072E-2,-9.624999948E-4
4.384733572E0,-4.042499885E-2,5.912499968E-3,-1.443750039E-2
4.387240035E0,1.952499896E-2,-3.451250121E-2,-2.791249938E-2
4.389745881E0,1.098624989E-1,-6.503749639E-2,-3.643750027E-2
4.392252341E0,1.880999953E-1,-6.751249731E-2,-3.643750027E-2
4.394759725E0,2.211000025E-1,-6.379999965E-2,-3.024999984E-2
4.397266271E0,1.843875051E-1,-6.379999965E-2,-1.567500085E-2
4.399772040E0,8.786249906E-2,-5.032499880E-2,-3.437499981E-3
4.402278577E0,-2.447500080E-2,-3.684999794E-2,7.562499959E-3
4.404785961E0,-1.112374961E-1,-2.103750035E-2,1.003750041E-2
4.407292406E0,-1.527625024E-1,-2.749999985E-3,6.324999966E-3
4.409798252E0,-1.552374959E-1,1.691249944E-2,3.849999979E-3
4.412304942E0,-1.368124932E-1,3.024999984E-2,3.849999979E-3
4.414812327E0,-1.124750003E-1,4.496249929E-2,2.749999985E-3
4.417318775E0,-8.552499861E-2,4.372499883E-2,-4.674999975E-3
4.419824622E0,-4.276249930E-2,8.249999955E-3,-1.319999993E-2
4.422331081E0,2.433750033E-2,-3.451250121E-2,-2.901249938E-2
4.424838466E0,1.086250022E-1,-6.751249731E-2,-4.001250118E-2
4.427345011E0,1.831499934E-1,-7.961250097E-2,-4.743750021E-2
4.429850780E0,2.186249942E-1,-8.208750188E-2,-4.496249929E-2
4.432357317E0,1.941500008E-1,-6.751249731E-2,-3.272499889E-2
4.434864702E0,1.111000031E-1,-3.808749840E-2,-1.924999990E-2
4.437371170E0,6.049999967E-3,-1.979999989E-2,-7.149999961E-3
4.439877016E0,-8.552499861E-2,-1.003750041E-2,-9.624999948E-4
4.442383707E0,-1.405249983E-1,-2.749999985E-3,-9.624999948E-4
4.444891091E0,-1.564749926E-1,8.249999955E-3,2.749999985E-4
4.447397550E0,-1.454750001E-1,2.172499895E-2,2.749999985E-3
4.449903396E0,-1.209999993E-1,3.643750027E-2,8.799999952E-3
4.452409855E0,-9.295000136E-2,3.272499889E-2,5.087499972E-3
4.454917240E0,-5.128749833E-2,7.012499962E-3,-8.249999955E-3
4.457423762E0,1.704999991E-2,-3.079999983E-2,-2.172499895E-2
4.459929531E0,1.062875018E-1,-5.761250108E-2,-3.767500073E-2
4.462436067E0,1.880999953E-1,-7.108750194E-2,-4.372499883E-2
4.464943452E0,2.308624983E-1,-7.108750194E-2,-4.372499883E-2
4.467449905E0,2.063875049E-1,-6.984999776E-2,-3.024999984E-2
4.469955752E0,1.208624989E-1,-5.279999971E-2,-1.691249944E-2
4.472462442E0,7.287499961E-3,-3.808749840E-2,-5.912499968E-3
4.474969826E0,-8.799999952E-2,-2.474999987E-2,5.087499972E-3
4.477476367E0,-1.405249983E-1,-8.799999952E-3,8.799999952E-3
4.479982136E0,-1.490499973E-1,5.912499968E-3,7.562499959E-3
4.482488596E0,-1.357125044E-1,2.048750035E-2,7.562499959E-3
4.484995980E0,-1.137124971E-1,3.148749843E-2,5.087499972E-3
4.487502521E0,-9.171249717E-2,3.643750027E-2,-9.624999948E-4
4.490008290E0,-5.995000154E-2,1.196249947E-2,-1.196249947E-2
4.492514827E0,-7.424999960E-3,-2.708750032E-2,-2.172499895E-2
4.495022211E0,7.081250101E-2,-6.132499874E-2,-3.272499889E-2
4.497528891E0,1.513874978E-1,-7.108750194E-2,-3.396249935E-2
4.500034507E0,1.953874975E-1,-7.232499868E-2,-3.272499889E-2
4.502541197E0,1.758625060E-1,-7.479999959E-2,-1.801249944E-2
4.505048582E0,9.528750181E-2,-5.156249925E-2,-4.674999975E-3
4.507555044E0,-4.949999973E-3,-2.227500081E-2,1.512499992E-3
4.510060890E0,-8.304999769E-2,-1.512499992E-3,1.512499992E-3
4.512567350E0,-1.197625026E-1,1.072499994E-2,-1.072499994E-2
4.515074812E0,-1.172875017E-1,1.319999993E-2,-1.924999990E-2
4.517581271E0,-9.528750181E-2,9.487500414E-3,-2.172499895E-2
4.520087117E0,-6.723749638E-2,2.048750035E-2,-2.172499895E-2
4.522593577E0,-4.523750022E-2,2.791249938E-2,-2.048750035E-2
4.525100961E0,-1.842499897E-2,-2.749999985E-4,-2.667500079E-2
4.527607660E0,2.804999985E-2,-4.303750023E-2,-3.272499889E-2
4.530113275E0,9.776250273E-2,-6.751249731E-2,-3.891250119E-2
4.532619965E0,1.710499972E-1,-7.232499868E-2,-3.767500073E-2
4.535127350E0,2.125750035E-1,-7.232499868E-2,-3.272499889E-2
4.537633829E0,1.918125004E-1,-6.256250292E-2,-2.172499895E-2
4.540139675E0,1.062875018E-1,-5.651250109E-2,-5.912499968E-3
4.542646134E0,-1.471249945E-2,-5.403750017E-2,1.127499994E-2
4.545153519E0,-1.258125007E-1,-4.179999977E-2,2.351249941E-2
4.547660078E0,-1.942874938E-1,-1.484999992E-2,2.832499892E-2
4.550165848E0,-2.113374919E-1,1.319999993E-2,3.079999983E-2
4.552672384E0,-1.905750036E-1,3.877500072E-2,2.956249937E-2
4.555179769E0,-1.454750001E-1,5.596249923E-2,1.484999992E-2
4.557686463E0,-8.552499861E-2,4.001250118E-2,-5.912499968E-3
4.560192078E0,-1.718750037E-2,1.072499994E-2,-3.519999981E-2
4.562698769E0,6.476250291E-2,-2.708750032E-2,-5.596249923E-2
4.565206153E0,1.563374996E-1,-5.527500063E-2,-6.943749636E-2
4.567712617E0,2.283875048E-1,-7.603749633E-2,-7.796250284E-2
4.570218463E0,2.651000023E-1,-1.053249985E-1,-7.177499682E-2
4.572724923E0,2.393874973E-1,-1.028499976E-1,-5.596249923E-2
4.575232307E0,1.551000029E-1,-6.503749639E-2,-3.272499889E-2
4.577738848E0,4.152499884E-2,-3.932499886E-2,-4.674999975E-3
4.580244617E0,-6.352499872E-2,-2.708750032E-2,1.251249947E-2
4.582751153E0,-1.332374960E-1,-1.608750038E-2,1.732499897E-2
4.585258538E0,-1.662375033E-1,-1.251249947E-2,1.732499897E-2
4.587765232E0,-1.722874939E-1,3.437499981E-3,2.103750035E-2
4.590270843E0,-1.600500047E-1,2.667500079E-2,2.103750035E-2
4.592777533E0,-1.332374960E-1,4.248749837E-2,1.732499897E-2
4.595284918E0,-9.047500044E-2,1.924999990E-2,6.324999966E-3
4.597791381E0,-2.199999988E-2,-2.584999986E-2,-1.072499994E-2
4.600297242E0,6.710000336E-2,-7.108750194E-2,-2.667500079E-2
4.602803702E0,1.538625062E-1,-8.332499862E-2,-3.396249935E-2
4.605311087E0,2.051499933E-1,-6.503749639E-2,-3.024999984E-2
4.607817627E0,1.953874975E-1,-5.032499880E-2,-2.172499895E-2
4.610323410E0,1.220999956E-1,-4.427500069E-2,-1.567500085E-2
4.612829947E0,2.557500079E-2,-2.832499892E-2,-1.443750039E-2
4.615337331E0,-5.499999970E-2,-2.103750035E-2,-1.691249944E-2
4.617844026E0,-9.528750181E-2,-1.003750041E-2,-1.924999990E-2
4.620349655E0,-1.050499976E-1,1.319999993E-2,-2.296249941E-2
4.622856345E0,-9.404999763E-2,3.148749843E-2,-1.924999990E-2
4.625363730E0,-8.071249723E-2,4.124999791E-2,-1.567500085E-2
4.627870194E0,-6.847500056E-2,3.519999981E-2,-1.924999990E-2
4.630376026E0,-4.523750022E-2,9.487500414E-3,-2.419999987E-2
4.632882485E0,6.049999967E-3,-3.451250121E-2,-3.396249935E-2
4.635389870E0,7.947500050E-2,-8.208750188E-2,-3.891250119E-2
4.637896410E0,1.551000029E-1,-1.077999994E-1,-4.124999791E-2
4.640402194E0,1.905750036E-1,-1.040875018E-1,-3.148749843E-2
4.642908730E0,1.612875015E-1,-7.961250097E-2,-1.196249947E-2
4.645416115E0,7.081250101E-2,-5.156249925E-2,8.799999952E-3
4.647922809E0,-4.028749838E-2,-2.474999987E-2,1.856249943E-2
4.650428440E0,-1.209999993E-1,-1.251249947E-2,1.251249947E-2
4.652935131E0,-1.515250057E-1,-3.987499978E-3,2.749999985E-4
4.655442515E0,-1.355749965E-1,9.487500414E-3,-1.691249944E-2
4.657948979E0,-1.013374999E-1,2.543750033E-2,-2.296249941E-2
4.660454810E0,-6.599999964E-2,3.519999981E-2,-2.419999987E-2
4.662961270E0,-3.423750028E-2,2.777500078E-2,-2.914999984E-2
4.665468654E0,-3.712499980E-3,-1.127499994E-2,-2.914999984E-2
4.667975195E0,3.671250120E-2,-5.403750017E-2,-3.396249935E-2
4.670480979E0,8.923749626E-2,-7.851249725E-2,-3.519999981E-2
4.672987515E0,1.380500048E-1,-8.456250280E-2,-3.148749843E-2
4.675494900E0,1.637624949E-1,-7.232499868E-2,-2.296249941E-2
4.678001594E0,1.380500048E-1,-4.908749834E-2,-9.487500414E-3
4.680507229E0,6.476250291E-2,-2.956249937E-2,2.749999985E-4
4.683013919E0,-2.928750031E-2,-2.351249941E-2,5.087499972E-3
4.685521304E0,-1.025749967E-1,-1.979999989E-2,2.749999985E-4
4.688027767E0,-1.319999993E-1,-1.127499994E-2,-8.249999955E-3
4.690533632E0,-1.245749965E-1,8.249999955E-3,-1.567500085E-2
4.693040092E0,-9.404999763E-2,2.543750033E-2,-1.814999990E-2
4.695547476E0,-6.352499872E-2,3.643750027E-2,-1.567500085E-2
4.698054017E0,-4.152499884E-2,2.667500079E-2,-1.567500085E-2
4.700559771E0,-1.828750037E-2,-1.127499994E-2,-1.443750039E-2
4.703066308E0,1.952499896E-2,-5.651250109E-2,-1.443750039E-2
4.705573692E0,7.204999775E-2,-8.579999954E-2,-1.072499994E-2
4.708080387E0,1.222374961E-1,-8.951249719E-2,-3.437499981E-3
4.710585983E0,1.465750039E-1,-7.603749633E-2,3.849999979E-3
4.713092673E0,1.222374961E-1,-5.032499880E-2,1.251249947E-2
4.715600058E0,5.499999970E-2,-2.227500081E-2,7.562499959E-3
4.718106521E0,-2.681249939E-2,-1.732499897E-2,-9.624999948E-4
4.720612363E0,-8.676250279E-2,-1.374999993E-2,-1.691249944E-2
4.723118822E0,-1.099999994E-1,-1.512499992E-3,-3.024999984E-2
4.725626207E0,-1.062875018E-1,1.319999993E-2,-2.791249938E-2
4.728132747E0,-9.404999763E-2,2.777500078E-2,-1.924999990E-2
4.730638521E0,-7.452499866E-2,2.777500078E-2,-9.487500414E-3
4.733145058E0,-5.252499878E-2,-3.987499978E-3,-7.149999961E-3
4.735652443E0,-1.952499896E-2,-3.684999794E-2,-4.674999975E-3
4.738159137E0,3.052499890E-2,-5.527500063E-2,-8.249999955E-3
4.740664766E0,8.799999952E-2,-6.503749639E-2,-7.149999961E-3
4.743171457E0,1.355749965E-1,-6.751249731E-2,-9.624999948E-4
4.745678841E0,1.478125006E-1,-5.651250109E-2,2.612499986E-3
4.748185305E0,1.062875018E-1,-5.279999971E-2,8.799999952E-3
4.750691156E0,2.681249939E-2,-5.403750017E-2,7.562499959E-3
4.753197615E0,-5.004999787E-2,-3.808749840E-2,6.324999966E-3
4.755705000E0,-9.652499855E-2,-1.608750038E-2,1.512499992E-3
4.758211541E0,-1.075249985E-1,1.319999993E-2,-5.912499968E-3
4.760717310E0,-9.776250273E-2,3.272499889E-2,-1.567500085E-2
4.763223846E0,-7.947500050E-2,4.001250118E-2,-2.543750033E-2
4.765731231E0,-5.376249924E-2,2.667500079E-2,-3.024999984E-2
4.768237925E0,-2.681249939E-2,-1.512499992E-3,-2.914999984E-2
4.770743527E0,7.287499961E-3,-4.056249931E-2,-2.543750033E-2
4.773250217E0,4.523750022E-2,-7.851249725E-2,-1.691249944E-2
4.775757601E0,8.304999769E-2,-1.040875018E-1,-7.149999961E-3
4.778264065E0,1.075249985E-1,-9.061250091E-2,7.562499959E-3
4.780769896E0,9.652499855E-2,-4.908749834E-2,1.856249943E-2
4.783276356E0,5.376249924E-2,-1.856249943E-2,1.979999989E-2
4.785783740E0,-1.237499993E-3,-1.003750041E-2,3.849999979E-3
4.788290281E0,-4.523750022E-2,-1.856249943E-2,-1.924999990E-2
4.790796045E0,-8.057499677E-2,-1.979999989E-2,-3.148749843E-2
4.793302582E0,-1.038125008E-1,-2.749999985E-4,-3.024999984E-2
4.795809966E0,-1.112374961E-1,3.396249935E-2,-1.814999990E-2
4.798316660E0,-9.528750181E-2,4.372499883E-2,-1.072499994E-2
4.800822262E0,-5.857500061E-2,1.196249947E-2,-4.674999975E-3
4.803328952E0,-1.223750040E-2,-3.575000167E-2,-2.199999988E-3
4.805836337E0,3.176249936E-2,-7.108750194E-2,2.749999985E-4
4.808342800E0,7.452499866E-2,-8.456250280E-2,1.127499994E-2
4.810848632E0,9.899999946E-2,-6.503749639E-2,1.979999989E-2
4.813355091E0,9.899999946E-2,-4.427500069E-2,1.856249943E-2
4.815862476E0,7.576250285E-2,-4.179999977E-2,7.562499959E-3
4.818369016E0,3.671250120E-2,-5.156249925E-2,-8.249999955E-3
4.820874818E0,-9.762499481E-3,-5.279999971E-2,-1.924999990E-2
4.823381355E0,-5.499999970E-2,-2.474999987E-2,-2.419999987E-2
4.825888739E0,-9.652499855E-2,2.048750035E-2,-1.924999990E-2
4.828395434E0,-1.172875017E-1,5.843750015E-2,-1.924999990E-2
4.830901030E0,-1.050499976E-1,5.953750014E-2,-2.296249941E-2
4.833407720E0,-6.476250291E-2,1.443750039E-2,-2.791249938E-2
4.835914702E0,-2.076249942E-2,-3.079999983E-2,-3.024999984E-2
4.838421559E0,1.471249945E-2,-6.256250292E-2,-2.172499895E-2
4.840927415E0,4.276249930E-2,-7.727500051E-2,-1.196249947E-2
4.843433850E0,6.723749638E-2,-1.016125008E-1,5.087499972E-3
4.845941235E0,8.057499677E-2,-7.356250286E-2,1.732499897E-2
4.848447775E0,6.723749638E-2,-3.079999983E-2,1.856249943E-2
4.850953622E0,3.781250119E-2,-1.856249943E-2,1.361249946E-2
4.853460067E0,-1.237499993E-3,-2.351249941E-2,-8.249999955E-3
4.855967452E0,-4.523750022E-2,-2.351249941E-2,-2.667500079E-2
4.858474146E0,-8.552499861E-2,-7.562499959E-3,-3.396249935E-2
4.860979761E0,-1.038125008E-1,3.519999981E-2,-3.643750027E-2
4.863486413E0,-8.923749626E-2,6.324999779E-2,-3.396249935E-2
4.865993797E0,-5.252499878E-2,3.643750027E-2,-3.024999984E-2
4.868500338E0,-1.223750040E-2,-2.351249941E-2,-2.419999987E-2
4.871006107E0,2.076249942E-2,-8.456250280E-2,-1.319999993E-2
4.873512658E0,4.523750022E-2,-1.090374961E-1,5.087499972E-3
4.876020042E0,6.104999781E-2,-1.040875018E-1,2.461249940E-2
4.878526506E0,5.499999970E-2,-5.884999782E-2,3.561250120E-2
4.881032352E0,3.671250120E-2,-1.374999993E-2,2.584999986E-2
4.883538811E0,9.762499481E-3,-2.227500081E-2,7.562499959E-3
4.886046196E0,-1.471249945E-2,-4.303750023E-2,-1.567500085E-2
4.888552890E0,-4.276249930E-2,-3.327500075E-2,-3.891250119E-2
4.891058506E0,-7.204999775E-2,4.674999975E-3,-4.248749837E-2
4.893565196E0,-8.428750187E-2,5.596249923E-2,-3.891250119E-2
4.896072605E0,-7.081250101E-2,7.177499682E-2,-3.148749843E-2
4.898579145E0,-4.276249930E-2,1.924999990E-2,-2.667500079E-2
4.901084914E0,-1.828750037E-2,-4.784999788E-2,-2.296249941E-2
4.903591451E0,6.049999967E-3,-9.061250091E-2,-8.249999955E-3
4.906098841E0,2.323750034E-2,-8.703749627E-2,7.562499959E-3
4.908605304E0,3.671250120E-2,-7.727500051E-2,2.461249940E-2
4.911111150E0,3.299999982E-2,-4.675000161E-2,3.561250120E-2
4.913617610E0,1.828750037E-2,-1.127499994E-2,2.227500081E-2
4.916124989E0,1.237499993E-3,-1.856249943E-2,1.512499992E-3
4.918631684E0,-1.594999991E-2,-2.956249937E-2,-2.419999987E-2
4.921137299E0,-3.547500074E-2,-1.251249947E-2,-4.248749837E-2
4.923643989E0,-5.252499878E-2,1.801249944E-2,-4.248749837E-2
4.926151355E0,-5.004999787E-2,4.743750021E-2,-3.519999981E-2
4.928657895E0,-3.176249936E-2,3.767500073E-2,-2.667500079E-2
4.931163665E0,-1.594999991E-2,-1.374999993E-2,-1.814999990E-2
4.933670201E0,-3.712499980E-3,-6.984999776E-2,-3.437499981E-3
4.936177586E0,9.762499481E-3,-9.432499856E-2,1.608750038E-2
4.938684049E0,2.076249942E-2,-8.456250280E-2,3.684999794E-2
4.941189896E0,1.581249945E-2,-6.503749639E-2,5.527500063E-2
4.943696355E0,1.237499993E-3,-3.327500075E-2,4.661250114E-2
4.946203730E0,-9.762499481E-3,-2.584999986E-2,2.351249941E-2
4.948710424E0,-1.223750040E-2,-4.179999977E-2,-4.674999975E-3
4.951216039E0,-2.076249942E-2,-3.079999983E-2,-2.914999984E-2
4.953722730E0,-2.681249939E-2,2.199999988E-3,-4.248749837E-2
4.956230114E0,-2.323750034E-2,4.496249929E-2,-4.991250113E-2
4.958736655E0,-4.949999973E-3,6.077500060E-2,-5.101250112E-2
