"Time (s)","Acceleration x (m/s^2)","Acceleration y (m/s^2)","Acceleration z (m/s^2)"
1.250655300E-2,-1.069500074E-1,9.814050674E0,1.087050080E0
1.501250200E-2,-8.505000174E-2,1.045305061E1,1.006950021E0
1.751950200E-2,-5.895000324E-2,1.071900082E1,1.063050032E0
2.002696400E-2,-2.805000171E-2,1.036005020E1,1.114950061E0
2.253373300E-2,3.795000166E-2,9.663000107E0,1.290000081E0
2.503988700E-2,8.595000207E-2,9.004950523E0,1.663950086E0
2.754690500E-2,1.909500062E-1,8.665050507E0,2.056050062E0
3.005436600E-2,2.539499998E-1,8.887050629E0,2.494050026E0
3.256136800E-2,2.610000074E-1,9.481050491E0,2.920950174E0
3.506729700E-2,1.669500023E-1,1.008405018E1,2.947050095E0
3.757406400E-2,-1.395000052E-2,1.025700092E1,2.710050106E0
4.008175600E-2,-2.239500135E-1,9.955050468E0,2.200050116E0
4.258875800E-2,-3.940500319E-1,9.342000008E0,1.632000089E0
4.509470900E-2,-4.570500255E-1,8.965950012E0,1.221000075E0
4.760147600E-2,-3.750000298E-1,9.117000580E0,1.030950069E0
5.010916900E-2,-2.149500102E-1,9.715950012E0,1.102950096E0
5.261617100E-2,-4.200000316E-2,1.038405037E1,1.374000072E0
5.512209900E-2,1.480500102E-1,1.063305092E1,1.624950051E0
5.762886600E-2,2.920500040E-1,1.024500084E1,1.683000088E0
6.013655800E-2,3.640500307E-1,9.510000229E0,1.789950132E0
6.264356000E-2,4.159500301E-1,8.859000206E0,1.885950089E0
6.514948300E-2,4.260000288E-1,8.647950172E0,1.996050119E0
6.765624600E-2,3.570000231E-1,8.938050270E0,2.233050108E0
7.016393800E-2,1.669500023E-1,9.534000397E0,2.487000227E0
7.267094000E-2,-4.500000179E-2,1.000305080E1,2.539950132E0
7.517686300E-2,-3.319500089E-1,1.011795044E1,2.254950047E0
7.768364400E-2,-5.279999971E-1,9.847050667E0,1.807050109E0
8.019133700E-2,-6.190500259E-1,9.385050774E0,1.357050061E0
8.269810800E-2,-5.689499974E-1,9.105000496E0,1.078950047E0
8.520423800E-2,-3.919500113E-1,9.214950562E0,1.137000084E0
8.771100500E-2,-7.800000161E-2,9.694050789E0,1.453050017E0
9.021869700E-2,2.080500126E-1,1.024695015E1,1.920000076E0
9.272546900E-2,4.500000179E-1,1.048395061E1,2.248050213E0
9.523162200E-2,5.580000281E-1,1.022100067E1,2.335950136E0
9.773839000E-2,5.890500546E-1,9.591000557E0,2.274000168E0
1.002460820E-1,5.410500169E-1,9.057000160E0,2.121000051E0
1.027528530E-1,4.069500268E-1,8.842050552E0,1.951050043E0
1.052590070E-1,1.960500032E-1,9.085950851E0,1.927050114E0
1.077657880E-1,-4.200000316E-2,9.591000557E0,1.972050071E0
1.102734810E-1,-2.980500162E-1,1.004595089E1,1.953000069E0
1.127802520E-1,-4.999500215E-1,1.023300076E1,1.723050117E0
1.152863960E-1,-6.000000238E-1,9.940950394E0,1.434000015E0
1.177931630E-1,-5.879999995E-1,9.418950081E0,1.209000111E0
1.203008550E-1,-4.660500288E-1,9.045000076E0,1.186950088E0
1.228076260E-1,-1.980000138E-1,9.133950233E0,1.398000121E0
1.253137030E-1,7.605000585E-2,9.639000893E0,1.881000042E0
1.278205530E-1,3.040500283E-1,1.025895023E1,2.320050001E0
1.303282450E-1,4.330500066E-1,1.047495079E1,2.563950062E0
1.328350160E-1,4.909500182E-1,1.015395069E1,2.439000130E0
1.353411700E-1,4.450500309E-1,9.486000061E0,2.158950090E0
1.378479560E-1,3.330000043E-1,8.926050186E0,1.843050122E0
1.403556480E-1,1.650000066E-1,8.751000404E0,1.630050063E0
1.428626500E-1,2.100000158E-2,9.004950523E0,1.594050050E0
1.453684970E-1,-1.309500039E-1,9.498000145E0,1.699050069E0
1.478753740E-1,-2.790000141E-1,1.002900028E1,1.743000031E0
1.503830660E-1,-3.889500201E-1,1.024995041E1,1.680000067E0
1.528900680E-1,-4.590000212E-1,1.005795002E1,1.573050022E0
1.553959910E-1,-3.799500167E-1,9.567000389E0,1.417050123E0
1.579027680E-1,-2.509500086E-1,9.127050400E0,1.390950084E0
1.604104610E-1,-4.200000316E-2,9.076050758E0,1.611000061E0
1.629174630E-1,1.870500147E-1,9.505050659E0,2.013000011E0
1.654233090E-1,3.660000265E-1,1.009905052E1,2.449050188E0
1.679301580E-1,4.279500246E-1,1.041000080E1,2.659950018E0
1.704377730E-1,4.189500213E-1,1.025400066E1,2.581050158E0
1.729446220E-1,3.109500110E-1,9.682050705E0,2.245050192E0
1.754507750E-1,1.650000066E-1,9.064050674E0,1.819050074E0
1.779575570E-1,3.299999982E-2,8.782050133E0,1.435950041E0
1.804652490E-1,-9.705000371E-2,8.997000694E0,1.369050026E0
1.829720200E-1,-2.190000117E-1,9.567000389E0,1.546050072E0
1.854781740E-1,-2.580000162E-1,1.014195061E1,1.680000067E0
1.879849170E-1,-2.980500162E-1,1.034100056E1,1.642050028E0
1.904926100E-1,-3.150000274E-1,1.012995052E1,1.551000118E0
1.929993810E-1,-2.650500238E-1,9.579000473E0,1.543950081E0
1.955055350E-1,-1.500000060E-1,9.142950058E0,1.564950109E0
1.980123120E-1,-1.395000052E-2,9.060000420E0,1.780950069E0
2.005200040E-1,1.410000026E-1,9.397050858E0,2.145000219E0
2.030267760E-1,2.440500110E-1,9.955050468E0,2.490000010E0
2.055328520E-1,2.490000129E-1,1.028805065E1,2.638050079E0
2.080396820E-1,2.220000178E-1,1.016595078E1,2.451000214E0
2.105473740E-1,1.530000120E-1,9.663000107E0,2.071050167E0
2.130541450E-1,7.605000585E-2,9.112050056E0,1.659000039E0
2.155602220E-1,5.700000376E-2,8.836950302E0,1.339950085E0
2.180670710E-1,1.905000024E-2,8.988000870E0,1.267950058E0
2.205747640E-1,-1.095000096E-2,9.463950157E0,1.431000113E0
2.230815350E-1,-3.299999982E-2,9.985950470E0,1.627950072E0
2.255876120E-1,-7.605000585E-2,1.023000050E1,1.726050138E0
2.280944510E-1,-1.600500047E-1,1.010805035E1,1.732950091E0
2.306021430E-1,-2.100000083E-1,9.618000031E0,1.671000123E0
2.331089050E-1,-2.050500065E-1,9.115050316E0,1.654050112E0
2.356149820E-1,-1.240500063E-1,8.956950188E0,1.788000107E0
2.381218260E-1,-1.395000052E-2,9.282000542E0,2.113950014E0
2.406295180E-1,1.000500023E-1,9.943050385E0,2.485050201E0
2.431362890E-1,1.600500047E-1,1.041000080E1,2.664000034E0
2.456423520E-1,2.080500126E-1,1.033305073E1,2.451000214E0
2.481491960E-1,1.699500084E-1,9.816000938E0,2.014950037E0
2.506568550E-1,1.549500078E-1,9.225000381E0,1.570050120E0
2.531636260E-1,1.050000042E-1,8.923050880E0,1.270950079E0
2.556697030E-1,6.900000572E-2,9.031050682E0,1.249050021E0
2.581765470E-1,9.000000544E-3,9.460050583E0,1.435950041E0
2.606841620E-1,-4.500000179E-2,9.952950478E0,1.675950050E0
2.631910100E-1,-1.309500039E-1,1.024200058E1,1.860000134E0
2.656970870E-1,-2.239500135E-1,1.015395069E1,1.873950124E0
2.682039310E-1,-2.890500128E-1,9.720000267E0,1.819050074E0
2.707115470E-1,-2.670000196E-1,9.241950035E0,1.764000058E0
2.732183950E-1,-1.840500087E-1,9.000000000E0,1.800000072E0
2.757244720E-1,-7.095000148E-2,9.213000298E0,2.020050049E0
2.782313160E-1,7.200000435E-2,9.792000771E0,2.320050001E0
2.807390080E-1,1.549500078E-1,1.028805065E1,2.413050175E0
2.832457660E-1,2.370000184E-1,1.036005020E1,2.320050001E0
2.857519200E-1,2.440500110E-1,9.940950394E0,1.980000138E0
2.882586870E-1,2.250000089E-1,9.292050362E0,1.539000034E0
2.907663790E-1,2.010000050E-1,8.835000038E0,1.230000019E0
2.932731500E-1,1.650000066E-1,8.824950218E0,1.225050092E0
2.957793040E-1,1.080000028E-1,9.282000542E0,1.494000077E0
2.982859940E-1,2.595000155E-2,9.892950058E0,1.857000113E0
3.007937640E-1,-5.700000376E-2,1.029000092E1,1.996050119E0
3.033005350E-1,-1.639500111E-1,1.021395016E1,1.956000090E0
3.058066120E-1,-2.430000156E-1,9.724950790E0,1.872000098E0
3.083133400E-1,-3.060000241E-1,9.177000046E0,1.711050034E0
3.108211090E-1,-2.550000250E-1,8.929950714E0,1.680000067E0
3.133278670E-1,-1.549500078E-1,9.166950226E0,1.915050149E0
3.158339440E-1,-1.095000096E-2,9.748950005E0,2.221050024E0
3.183407830E-1,1.219500080E-1,1.030005074E1,2.427000046E0
3.208484750E-1,2.179500163E-1,1.041000080E1,2.370000124E0
3.233552270E-1,2.269500047E-1,1.008195019E1,2.050950050E0
3.258613040E-1,2.389500141E-1,9.475950241E0,1.723050117E0
3.283681480E-1,2.220000178E-1,9.001950264E0,1.429050088E0
3.308758410E-1,1.549500078E-1,8.902050018E0,1.362000108E0
3.333826120E-1,8.595000207E-2,9.213000298E0,1.494000077E0
3.358886890E-1,4.950000439E-3,9.766050339E0,1.764000058E0
3.383955330E-1,-1.050000042E-1,1.024500084E1,1.963050127E0
3.409032250E-1,-2.430000156E-1,1.031205082E1,1.953000069E0
3.434099970E-1,-3.559500277E-1,9.874050140E0,1.849950075E0
3.459160680E-1,-3.460500240E-1,9.256050110E0,1.675950050E0
3.484229130E-1,-2.770500183E-1,8.881950378E0,1.642050028E0
3.509305280E-1,-1.120500043E-1,9.072000504E0,1.828950047E0
3.534373810E-1,3.600000218E-2,9.694050789E0,2.130000114E0
3.559434580E-1,1.750500053E-1,1.027800083E1,2.382000208E0
3.584502870E-1,2.509500086E-1,1.047705078E1,2.355000019E0
3.609579030E-1,3.210000098E-1,1.009395027E1,2.097000122E0
3.634647470E-1,2.989500165E-1,9.448050499E0,1.719000101E0
3.659708240E-1,2.440500110E-1,8.973000526E0,1.435950041E0
3.684776680E-1,1.870500147E-1,8.855999947E0,1.357050061E0
3.709852830E-1,1.120500043E-1,9.148050308E0,1.528950095E0
3.734921310E-1,4.950000439E-3,9.627000809E0,1.771050096E0
3.759982080E-1,-1.380000114E-1,1.008195019E1,1.945950150E0
3.785050530E-1,-2.629500031E-1,1.019700050E1,1.972050071E0
3.810126680E-1,-3.679500222E-1,9.922050476E0,1.896000147E0
3.835195160E-1,-3.870000243E-1,9.358950615E0,1.738050103E0
3.860255930E-1,-2.980500162E-1,8.997000694E0,1.692000031E0
3.885324170E-1,-1.380000114E-1,9.061950684E0,1.819050074E0
3.910400330E-1,4.095000029E-2,9.577050209E0,2.121000051E0
3.935468810E-1,2.149500102E-1,1.019505024E1,2.377050161E0
3.960529580E-1,3.229500055E-1,1.047705078E1,2.458050013E0
3.985597450E-1,3.229500055E-1,1.022595024E1,2.260050058E0
4.010674370E-1,3.060000241E-1,9.618000031E0,1.867050052E0
4.035742750E-1,2.320500165E-1,9.016950607E0,1.546050072E0
4.060803520E-1,1.150500029E-1,8.842050552E0,1.354950070E0
4.085871350E-1,1.905000024E-2,9.141000748E0,1.470000029E0
4.110948270E-1,-5.700000376E-2,9.675000191E0,1.756950140E0
4.136016750E-1,-1.639500111E-1,1.012995052E1,1.936050057E0
4.161077520E-1,-2.460000068E-1,1.021095085E1,1.915050149E0
4.186145190E-1,-3.060000241E-1,9.924000740E0,1.792950034E0
4.211222110E-1,-2.939999998E-1,9.442950249E0,1.711050034E0
4.236290600E-1,-2.239500135E-1,9.081000328E0,1.666050076E0
4.261351370E-1,-7.095000148E-2,9.124050140E0,1.788000107E0
4.286419810E-1,6.405000389E-2,9.555000305E0,2.044049978E0
4.311495960E-1,1.909500062E-1,1.008900070E1,2.346000195E0
4.336564240E-1,2.629500031E-1,1.037700081E1,2.365050077E0
4.361625010E-1,2.610000074E-1,1.018500042E1,2.161950111E0
4.386692680E-1,2.200500071E-1,9.622050285E0,1.831050038E0
4.411769280E-1,1.630500108E-1,9.067049980E0,1.515000105E0
4.436837760E-1,1.150500029E-1,8.854050636E0,1.345050097E0
4.461898530E-1,4.305000231E-2,9.049950600E0,1.434000015E0
4.486966200E-1,-3.795000166E-2,9.529050827E0,1.690050125E0
4.512043450E-1,-9.705000371E-2,1.000305080E1,1.921950102E0
4.537111170E-1,-2.070000172E-1,1.016295052E1,1.975050092E0
4.562173040E-1,-2.820000052E-1,9.904950142E0,1.867050052E0
4.587240720E-1,-3.300000131E-1,9.436050415E0,1.740000129E0
4.612317640E-1,-2.959500253E-1,9.057000160E0,1.692000031E0
4.637385350E-1,-1.600500047E-1,9.079050064E0,1.801950097E0
4.662446890E-1,1.950000064E-3,9.498000145E0,2.050950050E0
4.687515330E-1,1.630500108E-1,1.010400009E1,2.286000013E0
4.712591490E-1,2.850000262E-1,1.043595028E1,2.394000053E0
4.737659200E-1,3.280500174E-1,1.025895023E1,2.248050213E0
4.762720740E-1,2.989500165E-1,9.727950096E0,1.896000147E0
4.787788410E-1,2.389500141E-1,9.199050903E0,1.552950025E0
4.812865470E-1,1.549500078E-1,8.947050095E0,1.407000065E0
4.837933190E-1,7.200000435E-2,9.129000664E0,1.482000113E0
4.862992420E-1,-3.795000166E-2,9.565050125E0,1.671000123E0
4.888062400E-1,-1.639500111E-1,9.969000816E0,1.857000113E0
4.913139130E-1,-2.869500220E-1,1.014900017E1,1.948050141E0
4.938207610E-1,-3.559500277E-1,1.000305080E1,1.872000098E0
4.963268380E-1,-3.750000298E-1,9.606000900E0,1.765950084E0
4.988336050E-1,-2.820000052E-1,9.199050903E0,1.639950037E0
5.013413120E-1,-1.429500133E-1,9.061950684E0,1.659000039E0
5.038481600E-1,9.000000544E-3,9.391950607E0,1.896000147E0
5.063542370E-1,1.579500139E-1,9.969000816E0,2.166000128E0
5.088610040E-1,2.220000178E-1,1.039605045E1,2.278950214E0
5.113687250E-1,2.490000129E-1,1.032405090E1,2.145000219E0
5.138755730E-1,1.909500062E-1,9.768000603E0,1.872000098E0
5.163816500E-1,1.579500139E-1,9.091050148E0,1.551000118E0
5.188884180E-1,1.240500063E-1,8.760000229E0,1.333050013E0
5.213960910E-1,7.605000585E-2,8.893950462E0,1.429050088E0
5.239029390E-1,-1.095000096E-2,9.426000595E0,1.765950084E0
5.264090160E-1,-8.505000174E-2,9.981000900E0,2.020050049E0
5.289157830E-1,-1.519500017E-1,1.018305016E1,2.029950142E0
5.314234940E-1,-2.550000250E-1,1.001505089E1,1.860000134E0
5.339303430E-1,-2.790000141E-1,9.582000732E0,1.708950043E0
5.364364200E-1,-2.509500086E-1,9.222000122E0,1.611000061E0
5.389431680E-1,-1.450500041E-1,9.129000664E0,1.636950135E0
5.414508600E-1,-1.800000109E-2,9.433050156E0,1.792950034E0
5.439576310E-1,1.170000061E-1,9.961950302E0,2.104050159E0
5.464638280E-1,2.269500047E-1,1.035705090E1,2.296050072E0
5.489705950E-1,2.820000052E-1,1.029300022E1,2.233050108E0
5.514782880E-1,2.779500186E-1,9.855000496E0,1.953000069E0
5.539852860E-1,2.250000089E-1,9.241950035E0,1.684950113E0
5.564923550E-1,1.630500108E-1,8.932950020E0,1.515000105E0
5.589979820E-1,7.905000448E-2,8.995050430E0,1.555950046E0
5.615056720E-1,1.395000052E-2,9.439949989E0,1.740000129E0
5.640124440E-1,-8.805000782E-2,9.888000488E0,1.872000098E0
5.665186030E-1,-2.220000178E-1,1.010595036E1,1.896000147E0
5.690253700E-1,-3.130500019E-1,1.000305080E1,1.777950048E0
5.715330620E-1,-3.820500076E-1,9.582000732E0,1.632000089E0
5.740398180E-1,-3.660000265E-1,9.187050819E0,1.534050107E0
5.765459720E-1,-2.719500065E-1,9.055050850E0,1.618050098E0
5.790527390E-1,-1.380000114E-1,9.369000435E0,1.855050087E0
5.815604320E-1,8.595000207E-2,9.934050560E0,2.152050018E0
5.840672030E-1,2.200500071E-1,1.037895012E1,2.326950073E0
5.865733620E-1,3.229500055E-1,1.032600021E1,2.272050142E0
5.890801290E-1,3.330000043E-1,9.879000664E0,1.969950080E0
5.915878210E-1,3.010500073E-1,9.262950897E0,1.651950121E0
5.940946690E-1,2.299500108E-1,8.920950890E0,1.450050116E0
5.966007510E-1,1.750500053E-1,8.947050095E0,1.462050080E0
5.991075960E-1,1.099500060E-1,9.310950279E0,1.635000110E0
6.016152110E-1,9.000000544E-3,9.766050339E0,1.824000120E0
6.041220930E-1,-1.050000042E-1,1.006500053E1,1.936050057E0
6.066279390E-1,-2.119500041E-1,1.004895020E1,1.897950053E0
6.091349370E-1,-2.839500010E-1,9.687000275E0,1.822050095E0
6.116426300E-1,-2.890500128E-1,9.282000542E0,1.666050076E0
6.141494200E-1,-1.999500096E-1,9.097949982E0,1.647000074E0
6.166553430E-1,-8.100000024E-2,9.352050781E0,1.788000107E0
6.191623410E-1,6.195000187E-2,9.847050667E0,2.029950142E0
6.216700330E-1,1.990500093E-1,1.029300022E1,2.224050045E0
6.241768040E-1,2.509500086E-1,1.034295082E1,2.212050200E0
6.266827230E-1,2.610000074E-1,9.946050644E0,2.037000179E0
6.291897210E-1,2.299500108E-1,9.322950363E0,1.744950056E0
6.316974130E-1,1.720500141E-1,8.938050270E0,1.515000105E0
6.342042610E-1,1.030500084E-1,8.929950714E0,1.537050128E0
6.367103430E-1,2.595000155E-2,9.328050613E0,1.752000093E0
6.392171100E-1,-6.599999964E-2,9.840000153E0,1.963050127E0
6.417248220E-1,-1.429500133E-1,1.012995052E1,1.992000103E0
6.442316700E-1,-2.340000123E-1,1.008900070E1,1.845000029E0
6.467377470E-1,-2.580000162E-1,9.735000610E0,1.726050138E0
6.492445140E-1,-2.670000196E-1,9.330000877E0,1.573050022E0
6.517522060E-1,-1.840500087E-1,9.130949974E0,1.519950032E0
6.542590540E-1,-4.500000179E-2,9.321000099E0,1.726050138E0
6.567649240E-1,1.120500043E-1,9.799950600E0,2.065950155E0
6.592719220E-1,2.200500071E-1,1.023495007E1,2.287950039E0
6.617796200E-1,2.970000207E-1,1.032900047E1,2.314950228E0
6.642864680E-1,3.040500283E-1,9.946050644E0,2.106000185E0
6.667925450E-1,2.539499998E-1,9.354000092E0,1.831050038E0
6.692992970E-1,2.269500047E-1,8.956950188E0,1.596000075E0
6.718069890E-1,1.840500087E-1,8.917950630E0,1.503000021E0
6.743137610E-1,9.795000404E-2,9.241950035E0,1.627950072E0
6.768199150E-1,2.100000158E-2,9.759000778E0,1.816950083E0
6.793266820E-1,-1.090500057E-1,1.011105061E1,1.917000055E0
6.818343740E-1,-2.190000117E-1,1.012305069E1,1.816950083E0
6.843411550E-1,-2.869500220E-1,9.759000778E0,1.648950100E0
6.868473090E-1,-3.100500107E-1,9.249000549E0,1.543950081E0
6.893540760E-1,-2.509500086E-1,8.977950096E0,1.579950094E0
6.918617690E-1,-1.279500127E-1,9.172050476E0,1.801950097E0
6.943685400E-1,2.595000155E-2,9.760950089E0,2.157000065E0
6.968747030E-1,1.750500053E-1,1.029000092E1,2.451000214E0
6.993814700E-1,2.659500241E-1,1.042005062E1,2.514000177E0
7.018891620E-1,2.800500095E-1,1.009200001E1,2.242950201E0
7.043959340E-1,2.700000107E-1,9.502950668E0,1.848000050E0
7.069021020E-1,2.149500102E-1,9.052050591E0,1.528950095E0
7.094088700E-1,1.530000120E-1,8.964000702E0,1.438050032E0
7.119165620E-1,9.795000404E-2,9.234000206E0,1.522050023E0
7.144233380E-1,1.950000064E-3,9.687000275E0,1.704000115E0
7.169292610E-1,-1.210500076E-1,1.008195019E1,1.848000050E0
7.194362590E-1,-2.170500159E-1,1.021095085E1,1.924950123E0
7.219439470E-1,-3.250500262E-1,9.931050301E0,1.836000085E0
7.244507180E-1,-3.180000186E-1,9.448050499E0,1.695000052E0
7.269566460E-1,-2.580000162E-1,9.084000587E0,1.612950087E0
7.294636440E-1,-1.120500043E-1,9.108000755E0,1.738050103E0
7.319713160E-1,6.900000572E-2,9.535950661E0,2.047049999E0
7.344780880E-1,2.010000050E-1,1.006305027E1,2.287950039E0
7.369840110E-1,2.970000207E-1,1.035705090E1,2.353049994E0
7.394910090E-1,3.010500073E-1,1.021095085E1,2.233050108E0
7.419987010E-1,2.610000074E-1,9.634050369E0,1.917000055E0
7.445054720E-1,1.890000105E-1,9.096000671E0,1.546050072E0
7.470113950E-1,1.240500063E-1,8.839050293E0,1.318950057E0
7.495183930E-1,1.905000024E-2,9.012000084E0,1.399950027E0
7.520260860E-1,-6.599999964E-2,9.499950409E0,1.668000102E0
7.545328570E-1,-1.519500017E-1,9.972000122E0,1.891050100E0
7.570388090E-1,-2.100000083E-1,1.018995094E1,1.921950102E0
7.595458070E-1,-2.629500031E-1,9.991050720E0,1.864950061E0
7.620534650E-1,-2.580000162E-1,9.541050911E0,1.795050144E0
7.645602360E-1,-2.070000172E-1,9.151050568E0,1.743000031E0
7.670661360E-1,-7.304999977E-2,9.105000496E0,1.812000036E0
7.695731340E-1,4.500000179E-2,9.495000839E0,2.092050076E0
7.720808260E-1,1.579500139E-1,1.004100037E1,2.347950220E0
7.745875970E-1,2.110500038E-1,1.035495090E1,2.443950176E0
7.770935200E-1,2.419500053E-1,1.026405048E1,2.269050121E0
7.796005180E-1,2.220000178E-1,9.784950256E0,1.915050149E0
7.821082100E-1,1.750500053E-1,9.262950897E0,1.611000061E0
7.846149820E-1,1.219500080E-1,8.980950356E0,1.399950027E0
7.871209050E-1,6.405000389E-2,9.072000504E0,1.383000016E0
7.896279030E-1,-1.395000052E-2,9.486000061E0,1.611000061E0
7.921353640E-1,-7.095000148E-2,9.985950470E0,1.861950040E0
7.946423660E-1,-1.570500135E-1,1.024005032E1,1.921950102E0
7.971482840E-1,-2.599500120E-1,1.009605026E1,1.843050122E0
7.996552820E-1,-2.910000086E-1,9.625050545E0,1.735050082E0
8.021629750E-1,-2.650500238E-1,9.103050232E0,1.618050098E0
8.046697130E-1,-1.879500151E-1,8.929950714E0,1.695000052E0
8.071758670E-1,-7.304999977E-2,9.292050362E0,1.956000090E0
8.096826340E-1,6.195000187E-2,9.931050301E0,2.226000071E0
8.121903210E-1,1.480500102E-1,1.037895012E1,2.367000103E0
8.146970930E-1,2.029500157E-1,1.029795074E1,2.245050192E0
8.172032270E-1,1.960500032E-1,9.782999992E0,1.905000091E0
8.197099950E-1,2.010000050E-1,9.177000046E0,1.591950059E0
8.222174560E-1,1.600500047E-1,8.854050636E0,1.381050110E0
8.247244580E-1,1.030500084E-1,8.983050346E0,1.402950048E0
8.272303810E-1,4.095000029E-2,9.400050163E0,1.672950029E0
8.297373790E-1,-4.695000127E-2,9.943050385E0,1.903050065E0
8.322448410E-1,-1.429500133E-1,1.023000050E1,1.953000069E0
8.347518430E-1,-2.629500031E-1,1.009905052E1,1.897950053E0
8.372577660E-1,-3.220500052E-1,9.640950203E0,1.764000058E0
8.397647640E-1,-3.319500089E-1,9.169950485E0,1.648950100E0
8.422724370E-1,-2.220000178E-1,8.992950439E0,1.708950043E0
8.447792090E-1,-5.400000140E-2,9.292050362E0,1.917000055E0
8.472851310E-1,1.240500063E-1,9.895050049E0,2.209050179E0
8.497921290E-1,2.629500031E-1,1.037700081E1,2.427000046E0
8.522997930E-1,3.300000131E-1,1.040295029E1,2.377050161E0
8.548065640E-1,2.939999998E-1,9.913950920E0,2.089950085E0
8.573124670E-1,2.340000123E-1,9.277950287E0,1.699050069E0
8.598192350E-1,1.360500008E-1,8.902050018E0,1.435950041E0
8.623271580E-1,5.505000427E-2,8.973000526E0,1.399950027E0
8.648339290E-1,-2.595000155E-2,9.442950249E0,1.591950059E0
8.673398520E-1,-1.380000114E-1,9.958050728E0,1.789950132E0
8.698468500E-1,-2.170500159E-1,1.018005085E1,1.869000077E0
8.723545420E-1,-2.910000086E-1,1.001295090E1,1.789950132E0
8.748613130E-1,-3.730500042E-1,9.631950378E0,1.750050068E0
8.773672370E-1,-3.300000131E-1,9.265950203E0,1.660950065E0
8.798742350E-1,-2.580000162E-1,9.148050308E0,1.707000136E0
8.823819180E-1,-1.050000042E-1,9.373050690E0,1.909950137E0
8.848886890E-1,7.395000011E-2,9.820950508E0,2.209050179E0
8.873946070E-1,1.890000105E-1,1.022100067E1,2.329050064E0
8.899016050E-1,2.539499998E-1,1.026405048E1,2.230950117E0
8.924092830E-1,2.539499998E-1,9.883050919E0,1.987050056E0
8.949160540E-1,1.960500032E-1,9.334950447E0,1.690050125E0
8.974220060E-1,1.770000011E-1,8.973000526E0,1.470000029E0
8.999290040E-1,1.050000042E-1,8.968950272E0,1.402950048E0
9.024366960E-1,8.805000782E-2,9.321000099E0,1.506000042E0
9.049434670E-1,1.200000010E-2,9.754050255E0,1.764000058E0
9.074493900E-1,-1.210500076E-1,1.006800079E1,1.897950053E0
9.099563880E-1,-2.029500157E-1,1.001505089E1,1.848000050E0
9.124640810E-1,-3.010500073E-1,9.673050880E0,1.750050068E0
9.149708520E-1,-3.130500019E-1,9.256050110E0,1.687050104E0
9.174767750E-1,-2.530499995E-1,9.081000328E0,1.714050055E0
9.199837730E-1,-1.330500096E-1,9.289950371E0,1.861950040E0
9.224914700E-1,3.105000220E-2,9.775950432E0,2.130000114E0
9.249982420E-1,1.750500053E-1,1.022295094E1,2.371950150E0
9.275041650E-1,2.440500110E-1,1.031895065E1,2.386950016E0
9.300111630E-1,2.779500186E-1,1.000095081E1,2.098950148E0
9.325186240E-1,2.580000162E-1,9.487950325E0,1.756950140E0
9.350256550E-1,1.939500123E-1,9.081000328E0,1.510050058E0
9.375315780E-1,1.270500124E-1,9.036000252E0,1.414950013E0
9.400385760E-1,5.700000376E-2,9.298950195E0,1.563000083E0
9.425460380E-1,-7.095000148E-2,9.736950874E0,1.755000114E0
9.450530400E-1,-2.050500065E-1,1.009605026E1,1.872000098E0
9.475591940E-1,-2.939999998E-1,1.012305069E1,1.881000042E0
9.500659610E-1,-3.559500277E-1,9.840000153E0,1.759050131E0
9.525736530E-1,-3.460500240E-1,9.373050690E0,1.630050063E0
9.550804250E-1,-2.460000068E-1,9.079050064E0,1.600950122E0
9.575865780E-1,-1.020000055E-1,9.157950401E0,1.743000031E0
9.600933460E-1,7.605000585E-2,9.630000114E0,2.092050076E0
9.626008070E-1,2.179500163E-1,1.015395069E1,2.329050064E0
9.651078230E-1,2.920500040E-1,1.036905003E1,2.317050219E0
9.676137460E-1,2.920500040E-1,1.009200001E1,2.128050089E0
9.701207440E-1,2.340000123E-1,9.526950836E0,1.810050130E0
9.726284370E-1,1.699500084E-1,8.985000610E0,1.458000064E0
9.751351740E-1,1.000500023E-1,8.839050293E0,1.314000010E0
9.776413280E-1,4.305000231E-2,9.108000755E0,1.446000099E0
9.801480950E-1,-4.200000316E-2,9.613050461E0,1.747050047E0
9.826557870E-1,-1.020000055E-1,1.008705044E1,1.888950109E0
9.851625590E-1,-2.029500157E-1,1.017795086E1,1.845000029E0
9.876687120E-1,-2.359500080E-1,9.876000404E0,1.756950140E0
9.901754800E-1,-2.430000156E-1,9.427950859E0,1.687050104E0
9.926829410E-1,-1.930500120E-1,9.109950066E0,1.656000137E0
9.951899430E-1,-7.304999977E-2,9.127050400E0,1.783050060E0
9.976958660E-1,3.600000218E-2,9.555000305E0,2.068050146E0
1.000202864E0,1.630500108E-1,1.009395027E1,2.335950136E0
1.002710326E0,2.340000123E-1,1.036500072E1,2.446050167E0
1.005217343E0,2.629500031E-1,1.018500042E1,2.250000000E0
1.007723266E0,2.320500165E-1,9.685050011E0,1.921950102E0
1.010230273E0,1.819500029E-1,9.187050819E0,1.606050134E0
1.012737965E0,1.429500133E-1,8.964000702E0,1.402950048E0
1.015244756E0,8.805000782E-2,9.117000580E0,1.402950048E0
1.017750680E0,1.905000024E-2,9.541050911E0,1.624950051E0
1.020257697E0,-7.304999977E-2,1.002900028E1,1.867050052E0
1.022765389E0,-1.500000060E-1,1.024500084E1,1.921950102E0
1.025272160E0,-2.460000068E-1,1.008705044E1,1.812000036E0
1.027778083E0,-2.869500220E-1,9.586050034E0,1.692000031E0
1.030284850E0,-2.430000156E-1,9.081000328E0,1.620000124E0
1.032792773E0,-1.549500078E-1,9.000000000E0,1.714050055E0
1.035299545E0,-9.000000544E-3,9.400050163E0,1.993950129E0
1.037805468E0,1.459500045E-1,9.996000290E0,2.284050226E0
1.040312466E0,2.419500053E-1,1.037205029E1,2.419950008E0
1.042820158E0,2.820000052E-1,1.029000092E1,2.287950039E0
1.045326909E0,2.850000262E-1,9.792000771E0,1.939050078E0
1.047832832E0,2.370000184E-1,9.213000298E0,1.543950081E0
1.050339851E0,1.890000105E-1,8.899050713E0,1.291950107E0
1.052847544E0,1.240500063E-1,8.977950096E0,1.351950049E0
1.055354334E0,4.305000231E-2,9.378000259E0,1.555950046E0
1.057860257E0,-6.599999964E-2,9.898050308E0,1.788000107E0
1.060367240E0,-1.669500023E-1,1.017495060E1,1.891050100E0
1.062874932E0,-2.460000068E-1,1.007700062E1,1.861950040E0
1.065381704E0,-2.910000086E-1,9.619950294E0,1.780950069E0
1.067887627E0,-2.629500031E-1,9.120000839E0,1.699050069E0
1.070394625E0,-1.720500141E-1,8.973000526E0,1.732950091E0
1.072902317E0,-3.299999982E-2,9.297000885E0,2.023050070E0
1.075409088E0,1.270500124E-1,9.931050301E0,2.310000181E0
1.077915011E0,2.539499998E-1,1.036200047E1,2.431950092E0
1.080422009E0,2.779500186E-1,1.039095020E1,2.347950220E0
1.082929702E0,2.509500086E-1,9.928950310E0,2.038950205E0
1.085436435E0,2.130000144E-1,9.282000542E0,1.660950065E0
1.087942358E0,1.600500047E-1,8.878050804E0,1.369050026E0
1.090449356E0,1.120500043E-1,8.896950722E0,1.354950070E0
1.092957048E0,3.600000218E-2,9.385050774E0,1.608000040E0
1.095463886E0,-4.500000179E-2,1.000500011E1,1.879050136E0
1.097969733E0,-1.260000020E-1,1.033095074E1,1.933950067E0
1.100476717E0,-2.029500157E-1,1.022100067E1,1.881000042E0
1.102984409E0,-2.749500275E-1,9.712950706E0,1.792950034E0
1.105491180E0,-2.410500050E-1,9.217950821E0,1.675950050E0
1.107997103E0,-1.450500041E-1,9.013950348E0,1.680000067E0
1.110504101E0,-1.950000064E-3,9.262950897E0,1.908000112E0
1.113011563E0,1.240500063E-1,9.820950508E0,2.217000008E0
1.115518565E0,2.269500047E-1,1.027800083E1,2.395950079E0
1.118024719E0,2.659500241E-1,1.031700039E1,2.305050135E0
1.120531486E0,2.509500086E-1,9.888000488E0,2.011049986E0
1.123039178E0,1.990500093E-1,9.285000801E0,1.678050041E0
1.125545905E0,1.579500139E-1,8.911050797E0,1.422000051E0
1.128052059E0,8.805000782E-2,8.926050186E0,1.363950014E0
1.130558827E0,4.095000029E-2,9.316050529E0,1.515000105E0
1.133066274E0,-1.095000096E-2,9.811050415E0,1.752000093E0
1.135573276E0,-1.330500096E-1,1.014405060E1,1.909950137E0
1.138079435E0,-2.389500141E-1,1.011300087E1,1.860000134E0
1.140586202E0,-3.079500198E-1,9.699000359E0,1.755000114E0
1.143093879E0,-3.150000274E-1,9.166950226E0,1.684950113E0
1.145600651E0,-2.310000062E-1,8.950050354E0,1.720950127E0
1.148106805E0,-7.095000148E-2,9.208050728E0,1.957950115E0
1.150613572E0,7.905000448E-2,9.828000069E0,2.278950214E0
1.153121264E0,2.299500108E-1,1.032405090E1,2.499000072E0
1.155628035E0,3.060000241E-1,1.041495037E1,2.443950176E0
1.158134189E0,3.210000098E-1,1.003200054E1,2.122950077E0
1.160640956E0,2.800500095E-1,9.442950249E0,1.707000136E0
1.163148649E0,2.200500071E-1,9.060000420E0,1.402950048E0
1.165655420E0,1.459500045E-1,9.025950432E0,1.342950106E0
1.168161300E0,4.095000029E-2,9.318000793E0,1.494000077E0
1.170668298E0,-5.205000192E-2,9.787950516E0,1.743000031E0
1.173175741E0,-1.620000005E-1,1.012305069E1,1.884000063E0
1.175682743E0,-2.910000086E-1,1.015095043E1,1.908000112E0
1.178188647E0,-3.490500152E-1,9.840000153E0,1.812000036E0
1.180695645E0,-3.490500152E-1,9.358950615E0,1.720950127E0
1.183203337E0,-2.749500275E-1,9.032999992E0,1.644000053E0
1.185710108E0,-1.279500127E-1,9.129000664E0,1.828950047E0
1.188216262E0,4.095000029E-2,9.630000114E0,2.122950077E0
1.190723029E0,1.960500032E-1,1.014900017E1,2.346000195E0
1.193230722E0,2.659500241E-1,1.035705090E1,2.332050085E0
1.195737493E0,2.749500275E-1,1.009200001E1,2.116050005E0
1.198243647E0,2.320500165E-1,9.481050491E0,1.759050131E0
1.200750414E0,1.579500139E-1,8.968950272E0,1.458000064E0
1.203258091E0,9.105000645E-2,8.827050209E0,1.300050020E0
1.205764863E0,3.795000166E-2,9.130949974E0,1.471950054E0
1.208271021E0,-4.905000329E-2,9.688950539E0,1.777950048E0
1.210777789E0,-1.170000061E-1,1.012305069E1,1.951050043E0
1.213285481E0,-1.810500026E-1,1.018995094E1,1.905000091E0
1.215792242E0,-2.460000068E-1,9.862050056E0,1.812000036E0
1.218298165E0,-2.410500050E-1,9.391950607E0,1.719000101E0
1.220805154E0,-1.999500096E-1,9.072000504E0,1.692000031E0
1.223312842E0,-9.300000221E-2,9.129000664E0,1.800000072E0
1.225819613E0,6.405000389E-2,9.586050034E0,2.083050013E0
1.228325536E0,2.010000050E-1,1.013895035E1,2.382000208E0
1.230832534E0,2.560500205E-1,1.041705036E1,2.442000151E0
1.233340226E0,2.610000074E-1,1.016805077E1,2.209050179E0
1.235846997E0,2.220000178E-1,9.574050903E0,1.873950124E0
1.238352921E0,1.480500102E-1,9.081000328E0,1.563000083E0
1.240859919E0,9.300000221E-2,8.932950020E0,1.398000121E0
1.243367611E0,2.595000155E-2,9.166950226E0,1.477050066E0
1.245874382E0,-6.405000389E-2,9.603000641E0,1.654050112E0
1.248380305E0,-1.380000114E-1,1.004595089E1,1.848000050E0
1.250887317E0,-2.509500086E-1,1.018695068E1,1.885950089E0
1.253395010E0,-3.220500052E-1,9.955050468E0,1.789950132E0
1.255901786E0,-3.250500262E-1,9.481050491E0,1.663950086E0
1.258407709E0,-2.700000107E-1,9.064050674E0,1.600950122E0
1.260914693E0,-1.789500117E-1,9.016950607E0,1.735050082E0
1.263422375E0,-2.295000106E-2,9.475950241E0,2.017950058E0
1.265929223E0,1.150500029E-1,1.010400009E1,2.296050072E0
1.268435069E0,2.130000144E-1,1.040805054E1,2.407950163E0
1.270942067E0,2.779500186E-1,1.019505024E1,2.218950033E0
1.273449760E0,2.370000184E-1,9.582000732E0,1.834050059E0
1.275956531E0,2.220000178E-1,9.049950600E0,1.507950068E0
1.278462454E0,1.789500117E-1,8.871000290E0,1.374000072E0
1.280969452E0,1.080000028E-1,9.085950851E0,1.465050101E0
1.283477144E0,3.795000166E-2,9.553050041E0,1.708950043E0
1.285983993E0,-7.095000148E-2,9.981000900E0,1.891050100E0
1.288490085E0,-1.879500151E-1,1.014705086E1,1.896000147E0
1.290996852E0,-2.910000086E-1,9.967050552E0,1.828950047E0
1.293504568E0,-3.250500262E-1,9.526950836E0,1.696950078E0
1.296011339E0,-2.980500162E-1,9.093000412E0,1.570050120E0
1.298517493E0,-2.029500157E-1,9.007050514E0,1.656000137E0
1.301024288E0,-3.795000166E-2,9.373050690E0,1.951050043E0
1.303531996E0,1.170000061E-1,9.997950554E0,2.287950039E0
1.306038767E0,2.250000089E-1,1.041195011E1,2.487000227E0
1.308544921E0,2.680500150E-1,1.033605003E1,2.355000019E0
1.311051688E0,2.560500205E-1,9.792000771E0,2.004000187E0
1.313559380E0,1.990500093E-1,9.148050308E0,1.654050112E0
1.316066152E0,1.200000048E-1,8.832000732E0,1.411950111E0
1.318572305E0,4.800000042E-2,9.007050514E0,1.429050088E0
1.321079073E0,-4.005000368E-2,9.529050827E0,1.692000031E0
1.323586765E0,-1.189500093E-1,1.006500053E1,1.908000112E0
1.326093613E0,-1.789500117E-1,1.027095032E1,1.917000055E0
1.328599752E0,-2.550000250E-1,1.005600071E1,1.764000058E0
1.331106519E0,-3.030000031E-1,9.570000648E0,1.678050041E0
1.333614212E0,-2.910000086E-1,9.177000046E0,1.630050063E0
1.336121060E0,-1.759500057E-1,9.057000160E0,1.692000031E0
1.338627152E0,-2.295000106E-2,9.390000343E0,1.951050043E0
1.341133919E0,1.219500080E-1,9.948000908E0,2.254950047E0
1.343641611E0,2.560500205E-1,1.036500072E1,2.431950092E0
1.346148459E0,2.700000107E-1,1.031895065E1,2.296050072E0
1.348654536E0,2.800500095E-1,9.819000244E0,1.980000138E0
1.351161304E0,2.250000089E-1,9.214950562E0,1.594050050E0
1.353668996E0,1.770000011E-1,8.860950470E0,1.359000087E0
1.356175844E0,1.150500029E-1,8.932950020E0,1.345050097E0
1.358681921E0,4.305000231E-2,9.366000175E0,1.506000042E0
1.361188688E0,-4.005000368E-2,9.886050224E0,1.752000093E0
1.363696381E0,-1.309500039E-1,1.015905094E1,1.879050136E0
1.366203229E0,-2.650500238E-1,1.006005001E1,1.843050122E0
1.368709296E0,-3.270000219E-1,9.595950127E0,1.750050068E0
1.371216063E0,-3.130500019E-1,9.100049973E0,1.647000074E0
1.373723769E0,-2.479500175E-1,8.940000534E0,1.695000052E0
1.376230617E0,-1.260000020E-1,9.273000717E0,1.941000104E0
1.378736675E0,4.800000042E-2,9.904950142E0,2.266950130E0
1.381243443E0,1.840500087E-1,1.038795090E1,2.463000059E0
1.383751135E0,2.370000184E-1,1.038105011E1,2.391000032E0
1.386257983E0,2.659500241E-1,9.931050301E0,2.083050013E0
1.388764060E0,2.580000162E-1,9.328050613E0,1.671000123E0
1.391270827E0,2.080500126E-1,8.989950180E0,1.417050123E0
1.393778519E0,1.530000120E-1,9.019050598E0,1.386000037E0
1.396285291E0,7.200000435E-2,9.361050606E0,1.585050106E0
1.398791445E0,-4.200000316E-2,9.859050751E0,1.852950096E0
1.401298212E0,-1.450500041E-1,1.023495007E1,1.989000082E0
1.403805923E0,-2.530499995E-1,1.020195007E1,1.927050114E0
1.406312694E0,-3.100500107E-1,9.826050758E0,1.774050117E0
1.408818834E0,-2.790000141E-1,9.298950195E0,1.647000074E0
1.411325601E0,-2.070000172E-1,8.992950439E0,1.606050134E0
1.413833303E0,-5.400000140E-2,9.157950401E0,1.771050096E0
1.416340074E0,1.120500043E-1,9.718050003E0,2.118000031E0
1.418846243E0,2.340000123E-1,1.029000092E1,2.350950003E0
1.421353010E0,2.920500040E-1,1.043400097E1,2.344050169E0
1.423860702E0,2.700000107E-1,1.006005001E1,2.098950148E0
1.426367474E0,2.250000089E-1,9.378000259E0,1.731000066E0
1.428873627E0,1.339500099E-1,8.854050636E0,1.423950076E0
1.431380472E0,9.795000404E-2,8.776950836E0,1.339950085E0
1.433888087E0,1.905000024E-2,9.133950233E0,1.546050072E0
1.436394935E0,-6.105000153E-2,9.742050171E0,1.828950047E0
1.438901012E0,-1.260000020E-1,1.016100025E1,1.972050071E0
1.441407856E0,-1.930500120E-1,1.017495060E1,1.885950089E0
1.443915486E0,-2.700000107E-1,9.835050583E0,1.750050068E0
1.446422257E0,-2.599500120E-1,9.349050522E0,1.639950037E0
1.448928411E0,-1.879500151E-1,9.052050591E0,1.623000026E0
1.451435255E0,-8.295000345E-2,9.133950233E0,1.798050046E0
1.453942870E0,8.805000782E-2,9.607950211E0,2.116050005E0
1.456449728E0,1.960500032E-1,1.019895077E1,2.418000221E0
1.458955805E0,2.899500132E-1,1.044405079E1,2.461050034E0
1.461462578E0,2.869500220E-1,1.016100025E1,2.266950130E0
1.463970270E0,2.560500205E-1,9.570000648E0,1.903050065E0
1.466477041E0,2.179500163E-1,9.048000336E0,1.576950073E0
1.468983195E0,1.530000120E-1,8.905950546E0,1.390950084E0
1.471489962E0,8.805000782E-2,9.153000832E0,1.441050053E0
1.473997655E0,-4.050000105E-3,9.694050789E0,1.647000074E0
1.476504503E0,-8.805000782E-2,1.014900017E1,1.869000077E0
1.479010580E0,-2.050500065E-1,1.027800083E1,1.881000042E0
1.481517347E0,-2.770500183E-1,9.934050560E0,1.762050033E0
1.484025039E0,-3.199500144E-1,9.414000511E0,1.666050076E0
1.486531810E0,-2.670000196E-1,9.040950775E0,1.611000061E0
1.489037964E0,-1.669500023E-1,9.048000336E0,1.774050117E0
1.491544703E0,-1.950000064E-3,9.550050735E0,2.071050167E0
1.494052395E0,1.240500063E-1,1.014705086E1,2.355000019E0
1.496559243E0,2.200500071E-1,1.040295029E1,2.427000046E0
1.499065334E0,2.460000068E-1,1.017105007E1,2.206950188E0
1.501572178E0,2.700000107E-1,9.586050034E0,1.813950062E0
1.504079789E0,2.220000178E-1,9.091050148E0,1.501050115E0
1.506586637E0,1.870500147E-1,8.923050880E0,1.347000122E0
1.509092709E0,1.050000042E-1,9.084000587E0,1.407000065E0
1.511599553E0,2.595000155E-2,9.517050743E0,1.651950121E0
1.514107168E0,-8.295000345E-2,9.946050644E0,1.861950040E0
1.516614016E0,-1.740000099E-1,1.016595078E1,1.927050114E0
1.519120093E0,-2.890500128E-1,1.000095081E1,1.857000113E0
1.521626937E0,-2.910000086E-1,9.550050735E0,1.771050096E0
1.524134553E0,-2.599500120E-1,9.103050232E0,1.699050069E0
1.526641401E0,-1.330500096E-1,9.032999992E0,1.743000031E0
1.529147478E0,3.105000220E-2,9.382950783E0,1.989000082E0
1.531654322E0,1.960500032E-1,9.985950470E0,2.299950123E0
1.534161947E0,2.920500040E-1,1.041495037E1,2.449050188E0
1.536668796E0,3.060000241E-1,1.033605003E1,2.329050064E0
1.539174873E0,2.680500150E-1,9.814050674E0,1.980000138E0
1.541681717E0,2.010000050E-1,9.220050812E0,1.585050106E0
1.544189332E0,1.050000042E-1,8.851050377E0,1.326000094E0
1.546696194E0,4.995000362E-2,8.983050346E0,1.330950022E0
1.549202271E0,-5.205000192E-2,9.486000061E0,1.623000026E0
1.551709120E0,-1.260000020E-1,1.005795002E1,1.884000063E0
1.554216334E0,-1.999500096E-1,1.028595066E1,1.933950067E0
1.556723423E0,-2.359500080E-1,1.008195019E1,1.816950083E0
1.559229661E0,-2.719500065E-1,9.622050285E0,1.720950127E0
1.561736505E0,-2.410500050E-1,9.164999962E0,1.647000074E0
1.564244120E0,-1.519500017E-1,9.028950691E0,1.720950127E0
1.566750969E0,4.950000439E-3,9.357000351E0,1.965000153E0
1.569257045E0,1.200000048E-1,9.898050308E0,2.226000071E0
1.571763890E0,1.960500032E-1,1.031700039E1,2.389050007E0
1.574271505E0,2.440500110E-1,1.030200005E1,2.302950144E0
1.576778353E0,2.149500102E-1,9.852000237E0,1.987050056E0
1.579284435E0,1.720500141E-1,9.211050034E0,1.624950051E0
1.581791279E0,1.510500014E-1,8.836950302E0,1.402950048E0
1.584298895E0,1.080000028E-1,8.917950630E0,1.390950084E0
1.586805757E0,5.205000192E-2,9.394950867E0,1.599000096E0
1.589311834E0,7.050000131E-3,9.946050644E0,1.857000113E0
1.591818678E0,-1.000500023E-1,1.025700092E1,1.917000055E0
1.594326293E0,-2.100000083E-1,1.010805035E1,1.845000029E0
1.596833141E0,-2.719500065E-1,9.615000725E0,1.711050034E0
1.599339218E0,-2.790000141E-1,9.097949982E0,1.591950059E0
1.601846058E0,-2.170500159E-1,8.887050629E0,1.659000039E0
1.604353673E0,-7.304999977E-2,9.282000542E0,1.924950123E0
1.606860517E0,9.105000645E-2,9.910050392E0,2.290950060E0
1.609366594E0,1.819500029E-1,1.041495037E1,2.521050215E0
1.611873438E0,2.730000019E-1,1.044105053E1,2.425050020E0
1.614381054E0,2.820000052E-1,9.922050476E0,2.049000025E0
1.616887902E0,2.389500141E-1,9.253950119E0,1.663950086E0
1.619393979E0,1.630500108E-1,8.881950378E0,1.371000051E0
1.621900823E0,1.150500029E-1,8.983050346E0,1.369050026E0
1.624408438E0,2.895000204E-2,9.448050499E0,1.579950094E0
1.626915286E0,-6.405000389E-2,9.952950478E0,1.798050046E0
1.629421363E0,-1.840500087E-1,1.019895077E1,1.893000126E0
1.631928207E0,-2.749500275E-1,1.009200001E1,1.840950131E0
1.634435818E0,-3.510000110E-1,9.685050011E0,1.762050033E0
1.636942666E0,-3.559500277E-1,9.253950119E0,1.683000088E0
1.639448810E0,-2.670000196E-1,9.067049980E0,1.668000102E0
1.641955577E0,-1.000500023E-1,9.261000633E0,1.884000063E0
1.644463269E0,7.395000011E-2,9.778050423E0,2.170950174E0
1.646970046E0,2.299500108E-1,1.025205040E1,2.341050148E0
1.649476199E0,2.939999998E-1,1.034295082E1,2.311950207E0
1.651982967E0,3.180000186E-1,9.964950562E0,2.050950050E0
1.654490659E0,2.629500031E-1,9.321000099E0,1.692000031E0
1.656997430E0,2.110500038E-1,8.872950554E0,1.399950027E0
1.659503584E0,1.080000028E-1,8.872950554E0,1.312050104E0
1.662010351E0,4.995000362E-2,9.297000885E0,1.534050107E0
1.664517967E0,-2.805000171E-2,9.852000237E0,1.825950146E0
1.667024815E0,-1.140000075E-1,1.017495060E1,1.956000090E0
1.669530892E0,-2.290500104E-1,1.006305027E1,1.876950145E0
1.672037736E0,-2.839500010E-1,9.682050705E0,1.728000045E0
1.674545428E0,-2.980500162E-1,9.265950203E0,1.651950121E0
1.677052200E0,-2.190000117E-1,9.103050232E0,1.648950100E0
1.679558353E0,-1.240500063E-1,9.241950035E0,1.834050059E0
1.682065131E0,2.895000204E-2,9.663000107E0,2.134950161E0
1.684572823E0,1.720500141E-1,1.014900017E1,2.410950184E0
1.687079598E0,2.220000178E-1,1.032900047E1,2.422950029E0
1.689585752E0,2.419500053E-1,1.006995010E1,2.224050045E0
1.692092515E0,1.909500062E-1,9.523950577E0,1.861950040E0
1.694600208E0,1.429500133E-1,9.061950684E0,1.555950046E0
1.697106979E0,1.099500060E-1,8.964000702E0,1.395000100E0
1.699613133E0,3.795000166E-2,9.220050812E0,1.491000056E0
1.702119900E0,-3.495000303E-2,9.706050873E0,1.696950078E0
1.704627592E0,-1.309500039E-1,1.012305069E1,1.867050052E0
1.707134363E0,-2.310000062E-1,1.021605015E1,1.861950040E0
1.709640517E0,-2.890500128E-1,9.912000656E0,1.756950140E0
1.712147285E0,-3.100500107E-1,9.403950691E0,1.651950121E0
1.714654977E0,-2.479500175E-1,9.025950432E0,1.630050063E0
1.717161723E0,-1.210500076E-1,9.045000076E0,1.776000142E0
1.719667877E0,3.105000220E-2,9.559950829E0,2.098950148E0
1.722174649E0,1.750500053E-1,1.018995094E1,2.371950150E0
1.724682341E0,2.460000068E-1,1.049595070E1,2.461050034E0
1.727189093E0,2.899500132E-1,1.022805023E1,2.202000141E0
1.729695247E0,2.560500205E-1,9.538950920E0,1.776000142E0
1.732202014E0,2.149500102E-1,8.989950180E0,1.435950041E0
1.734709706E0,1.549500078E-1,8.832000732E0,1.294950008E0
1.737216477E0,9.795000404E-2,9.127050400E0,1.419000030E0
1.739722631E0,-6.000000052E-3,9.627000809E0,1.720950127E0
1.742229398E0,-1.279500127E-1,1.005105019E1,1.897950053E0
1.744737091E0,-2.269500047E-1,1.016595078E1,1.896000147E0
1.747243862E0,-3.300000131E-1,9.913950920E0,1.825950146E0
1.749750016E0,-3.660000265E-1,9.445050240E0,1.716000080E0
1.752256783E0,-2.839500010E-1,9.045000076E0,1.644000053E0
1.754764475E0,-1.669500023E-1,9.045000076E0,1.743000031E0
1.757271218E0,1.950000064E-3,9.430950165E0,2.017950058E0
1.759777372E0,1.789500117E-1,1.003695011E1,2.299950123E0
1.762284139E0,2.730000019E-1,1.042005062E1,2.439000130E0
1.764791831E0,2.970000207E-1,1.027605057E1,2.308050156E0
1.767298602E0,2.560500205E-1,9.732000351E0,1.965000153E0
1.769804785E0,2.149500102E-1,9.136050224E0,1.585050106E0
1.772311552E0,1.309500039E-1,8.875050545E0,1.371000051E0
1.774819250E0,6.000000238E-2,9.061950684E0,1.419000030E0
1.777326252E0,-4.500000179E-2,9.582000732E0,1.666050076E0
1.779832175E0,-1.240500063E-1,1.009395027E1,1.876950145E0
1.782339173E0,-1.860000044E-1,1.023000050E1,1.908000112E0
1.784846634E0,-2.629500031E-1,9.997950554E0,1.774050117E0
1.787353636E0,-3.220500052E-1,9.562050819E0,1.708950043E0
1.789859559E0,-2.430000156E-1,9.178950310E0,1.654050112E0
1.792366557E0,-1.639500111E-1,9.100049973E0,1.735050082E0
1.794874019E0,-1.800000109E-2,9.421050072E0,1.969950080E0
1.797380790E0,1.099500060E-1,9.919050217E0,2.274000168E0
1.799886944E0,2.059500068E-1,1.030500031E1,2.401050091E0
1.802393711E0,2.460000068E-1,1.025205040E1,2.286000013E0
1.804901394E0,2.149500102E-1,9.807000160E0,1.960050106E0
1.807408165E0,2.080500126E-1,9.249000549E0,1.599000096E0
1.809914319E0,1.510500014E-1,8.928000450E0,1.369050026E0
1.812421317E0,1.170000061E-1,8.992950439E0,1.354950070E0
1.814928778E0,2.895000204E-2,9.376049995E0,1.575000048E0
1.817435804E0,-4.695000127E-2,9.862050056E0,1.822050095E0
1.819941727E0,-1.120500043E-1,1.015395069E1,1.915050149E0
1.822448691E0,-2.269500047E-1,1.006800079E1,1.873950124E0
1.824956153E0,-2.890500128E-1,9.663000107E0,1.735050082E0
1.827462924E0,-3.030000031E-1,9.157950401E0,1.668000102E0
1.829969078E0,-1.980000138E-1,8.935050011E0,1.735050082E0
1.832476076E0,-6.599999964E-2,9.246000290E0,1.957950115E0
1.834983538E0,8.805000782E-2,9.862050056E0,2.308050156E0
1.837490540E0,2.220000178E-1,1.036905003E1,2.491950035E0
1.839996463E0,2.700000107E-1,1.039305019E1,2.383949995E0
1.842503461E0,3.010500073E-1,9.952950478E0,2.050950050E0
1.845010903E0,2.800500095E-1,9.366000175E0,1.651950121E0
1.847517905E0,1.990500093E-1,8.973000526E0,1.398000121E0
1.850023843E0,1.170000061E-1,8.995050430E0,1.369050026E0
1.852530841E0,1.395000052E-2,9.352050781E0,1.543950081E0
1.855038303E0,-8.295000345E-2,9.862050056E0,1.768950105E0
1.857545300E0,-1.909500062E-1,1.018995094E1,1.905000091E0
1.860051223E0,-2.839500010E-1,1.018005085E1,1.872000098E0
1.862558225E0,-3.370500207E-1,9.780000687E0,1.777950048E0
1.865065686E0,-2.959500253E-1,9.249000549E0,1.678050041E0
1.867572688E0,-1.999500096E-1,8.956950188E0,1.660950065E0
1.870078612E0,-7.304999977E-2,9.142950058E0,1.888950109E0
1.872585610E0,9.300000221E-2,9.742050171E0,2.217000008E0
1.875093071E0,2.149500102E-1,1.030005074E1,2.353049994E0
1.877600073E0,2.800500095E-1,1.041705036E1,2.317050219E0
1.880105996E0,2.680500150E-1,9.984000206E0,2.061000109E0
1.882612994E0,2.110500038E-1,9.325050354E0,1.696950078E0
1.885120471E0,1.410000026E-1,8.820000648E0,1.402950048E0
1.887627473E0,8.595000207E-2,8.791950226E0,1.318950057E0
1.890133396E0,3.600000218E-2,9.217950821E0,1.564950109E0
1.892640394E0,-2.805000171E-2,9.835050583E0,1.888950109E0
1.895147874E0,-1.090500057E-1,1.019895077E1,2.023050070E0
1.897654876E0,-1.789500117E-1,1.020705032E1,1.929000139E0
1.900160799E0,-2.359500080E-1,9.807000160E0,1.786050081E0
1.902667758E0,-2.269500047E-1,9.304050446E0,1.707000136E0
1.905175220E0,-1.570500135E-1,9.040950775E0,1.678050041E0
1.907682222E0,-4.005000368E-2,9.208050728E0,1.824000120E0
1.910188145E0,9.795000404E-2,9.664950371E0,2.095050097E0
1.912695143E0,1.939500123E-1,1.022295094E1,2.406000137E0
1.915202605E0,2.509500086E-1,1.038600063E1,2.458050013E0
1.917709607E0,2.610000074E-1,1.012995052E1,2.212050200E0
1.920215530E0,2.179500163E-1,9.562050819E0,1.848000050E0
1.922722528E0,1.600500047E-1,9.064050674E0,1.527000070E0
1.925229985E0,9.795000404E-2,8.947050095E0,1.369050026E0
1.927736987E0,4.995000362E-2,9.220050812E0,1.450050116E0
1.930242881E0,-1.395000052E-2,9.709050179E0,1.668000102E0
1.932749879E0,-9.000000358E-2,1.011600018E1,1.855050087E0
1.935257341E0,-2.070000172E-1,1.014705086E1,1.857000113E0
1.937764362E0,-3.150000274E-1,9.868950844E0,1.755000114E0
1.940270285E0,-3.300000131E-1,9.376049995E0,1.648950100E0
1.942777283E0,-2.910000086E-1,9.052050591E0,1.636950135E0
1.945284745E0,-2.029500157E-1,9.096000671E0,1.807050109E0
1.947791747E0,-4.005000368E-2,9.570000648E0,2.101950169E0
1.950297670E0,1.050000042E-1,1.011105061E1,2.359950066E0
1.952804668E0,2.299500108E-1,1.038795090E1,2.389050007E0
1.955312360E0,3.040500283E-1,1.016805077E1,2.190000057E0
1.957819208E0,2.749500275E-1,9.610050201E0,1.816950083E0
1.960325285E0,2.800500095E-1,9.096000671E0,1.471950054E0
1.962832052E0,2.440500110E-1,8.893950462E0,1.330950022E0
1.965339514E0,1.630500108E-1,9.091050148E0,1.395000100E0
1.967846530E0,6.405000389E-2,9.543000221E0,1.639950037E0
1.970352453E0,-5.700000376E-2,9.988950729E0,1.879050136E0
1.972859446E0,-2.100000083E-1,1.018995094E1,1.921950102E0
1.975367138E0,-3.220500052E-1,9.997950554E0,1.881000042E0
1.977873890E0,-3.559500277E-1,9.511950493E0,1.783050060E0
1.980380044E0,-3.030000031E-1,9.060000420E0,1.675950050E0
1.982886860E0,-1.519500017E-1,9.016950607E0,1.755000114E0
1.985394552E0,1.950000064E-3,9.448050499E0,2.050950050E0
1.987901400E0,1.770000011E-1,1.003695011E1,2.298000097E0
1.990407477E0,2.820000052E-1,1.039800072E1,2.427000046E0
1.992914244E0,3.060000241E-1,1.026900005E1,2.253000021E0
1.995421937E0,2.680500150E-1,9.730050087E0,1.924950123E0
1.997928785E0,1.840500087E-1,9.136050224E0,1.596000075E0
2.000434631E0,1.030500084E-1,8.871000290E0,1.362000108E0
2.002941629E0,1.905000024E-2,9.048000336E0,1.414950013E0
2.005449326E0,-5.895000324E-2,9.559950829E0,1.692000031E0
2.007956174E0,-1.620000005E-1,1.005600071E1,1.929000139E0
2.010462020E0,-2.170500159E-1,1.022295094E1,1.924950123E0
2.012969008E0,-2.670000196E-1,9.985950470E0,1.801950097E0
2.015476701E0,-2.890500128E-1,9.555000305E0,1.714050055E0
2.017983554E0,-2.389500141E-1,9.184050560E0,1.680000067E0
2.020489631E0,-1.090500057E-1,9.112050056E0,1.714050055E0
2.022996414E0,3.795000166E-2,9.436050415E0,1.945950150E0
2.025504106E0,1.840500087E-1,9.964950562E0,2.242950201E0
2.028010955E0,2.440500110E-1,1.032600021E1,2.353049994E0
2.030517032E0,2.820000052E-1,1.025895023E1,2.253000021E0
2.033023799E0,2.580000162E-1,9.759000778E0,1.968000054E0
2.035531491E0,1.960500032E-1,9.189000130E0,1.618050098E0
2.038038339E0,1.549500078E-1,8.896950722E0,1.411950111E0
2.040544416E0,7.905000448E-2,8.995050430E0,1.387950063E0
2.043051183E0,7.050000131E-3,9.376049995E0,1.591950059E0
2.045558842E0,-5.205000192E-2,9.904950142E0,1.840950131E0
2.048065690E0,-1.549500078E-1,1.017795086E1,1.885950089E0
2.050571767E0,-2.359500080E-1,1.005600071E1,1.831050038E0
2.053078534E0,-2.869500220E-1,9.589050293E0,1.668000102E0
2.055586226E0,-2.910000086E-1,9.124050140E0,1.588950038E0
2.058093070E0,-2.050500065E-1,8.988000870E0,1.656000137E0
2.060599146E0,-4.905000329E-2,9.294000626E0,1.945950150E0
2.063105953E0,7.905000448E-2,9.883050919E0,2.290950060E0
2.065613645E0,1.750500053E-1,1.035495090E1,2.518050194E0
2.068120493E0,2.320500165E-1,1.034100056E1,2.415000200E0
2.070626570E0,2.560500205E-1,9.883050919E0,2.085000038E0
2.073133337E0,2.080500126E-1,9.333000183E0,1.699050069E0
2.075641030E0,1.600500047E-1,8.973000526E0,1.443000078E0
2.078147878E0,1.099500060E-1,8.995050430E0,1.402950048E0
2.080653955E0,2.400000021E-2,9.376049995E0,1.555950046E0
2.083160722E0,-5.895000324E-2,9.859050751E0,1.743000031E0
2.085668399E0,-1.669500023E-1,1.018500042E1,1.876950145E0
2.088175247E0,-2.550000250E-1,1.015605068E1,1.861950040E0
2.090681343E0,-3.250500262E-1,9.787950516E0,1.780950069E0
2.093188111E0,-3.199500144E-1,9.268050194E0,1.671000123E0
2.095695784E0,-2.029500157E-1,8.983050346E0,1.666050076E0
2.098202632E0,-7.095000148E-2,9.196050644E0,1.884000063E0
2.100708709E0,8.805000782E-2,9.763950348E0,2.224050045E0
2.103215520E0,2.340000123E-1,1.030005074E1,2.403000116E0
2.105723136E0,2.820000052E-1,1.040295029E1,2.332050085E0
2.108229984E0,2.779500186E-1,9.991050720E0,2.050950050E0
2.110736061E0,2.269500047E-1,9.316050529E0,1.659000039E0
2.113242828E0,1.650000066E-1,8.868000031E0,1.336050034E0
2.115750520E0,9.600000083E-2,8.854050636E0,1.278000116E0
2.118257368E0,7.050000131E-3,9.237000465E0,1.506000042E0
2.120763445E0,-6.599999964E-2,9.820950508E0,1.834050059E0
2.123270289E0,-1.429500133E-1,1.018500042E1,1.968000054E0
2.125777967E0,-2.149500102E-1,1.014900017E1,1.881000042E0
2.128284738E0,-3.060000241E-1,9.739950180E0,1.776000142E0
2.130790810E0,-2.869500220E-1,9.273000717E0,1.750050068E0
2.133297577E0,-2.269500047E-1,9.055050850E0,1.731000066E0
2.135805337E0,-8.295000345E-2,9.213000298E0,1.864950061E0
2.138312109E0,7.395000011E-2,9.703950882E0,2.176050186E0
2.140818157E0,2.029500157E-1,1.022595024E1,2.395950079E0
2.143324924E0,2.539499998E-1,1.037895012E1,2.410950184E0
2.145832693E0,2.440500110E-1,1.008405018E1,2.142000198E0
2.148339464E0,2.269500047E-1,9.483000755E0,1.812000036E0
2.150845541E0,1.909500062E-1,9.043050766E0,1.510050058E0
2.153352308E0,1.290000081E-1,8.973000526E0,1.410000086E0
2.155860078E0,4.500000179E-2,9.262950897E0,1.471950054E0
2.158366849E0,-2.100000158E-2,9.778050423E0,1.711050034E0
2.160872926E0,-1.120500043E-1,1.013700008E1,1.900950074E0
2.163379770E0,-2.340000123E-1,1.022595024E1,1.891050100E0
2.165887462E0,-2.890500128E-1,9.859050751E0,1.765950084E0
2.168394215E0,-3.010500073E-1,9.304050446E0,1.624950051E0
2.170900291E0,-2.629500031E-1,8.971050262E0,1.596000075E0
2.173407150E0,-1.360500008E-1,9.093000412E0,1.798050046E0
2.175914765E0,1.950000064E-3,9.619950294E0,2.113950014E0
2.178421613E0,1.360500008E-1,1.022805023E1,2.371950150E0
2.180927690E0,1.990500093E-1,1.041705036E1,2.383949995E0
2.183434519E0,2.700000107E-1,1.009200001E1,2.188050032E0
2.185942135E0,2.179500163E-1,9.502950668E0,1.783050060E0
2.188448983E0,1.909500062E-1,9.024000168E0,1.450050116E0
2.190955137E0,1.360500008E-1,8.872950554E0,1.321050048E0
2.193461904E0,7.395000011E-2,9.115050316E0,1.465050101E0
2.195969596E0,-2.595000155E-2,9.607950211E0,1.743000031E0
2.198476367E0,-9.495000541E-2,1.004895020E1,1.929000139E0
2.200982521E0,-2.050500065E-1,1.021905041E1,1.936050057E0
2.203489289E0,-2.869500220E-1,1.000305080E1,1.837950110E0
2.205996981E0,-3.270000219E-1,9.495000839E0,1.743000031E0
2.208503752E0,-2.550000250E-1,9.049950600E0,1.656000137E0
2.211009934E0,-1.090500057E-1,9.040950775E0,1.762050033E0
2.213516701E0,4.995000362E-2,9.483000755E0,2.056050062E0
2.216024394E0,2.149500102E-1,1.011300087E1,2.329050064E0
2.218531165E0,3.109500110E-1,1.043400097E1,2.461050034E0
2.221037291E0,3.349500299E-1,1.027605057E1,2.263950109E0
2.223544058E0,2.939999998E-1,9.703950882E0,1.876950145E0
2.226051750E0,1.939500123E-1,9.064050674E0,1.546050072E0
2.228558521E0,1.080000028E-1,8.842050552E0,1.351950049E0
2.231064675E0,9.000000544E-3,9.061950684E0,1.414950013E0
2.233571442E0,-4.905000329E-2,9.606000900E0,1.675950050E0
2.236079135E0,-1.279500127E-1,1.010100079E1,1.861950040E0
2.238585906E0,-2.359500080E-1,1.022295094E1,1.872000098E0
2.241092060E0,-2.770500183E-1,9.928950310E0,1.783050060E0
2.243598827E0,-3.270000219E-1,9.469050407E0,1.687050104E0
2.246106519E0,-2.939999998E-1,9.115050316E0,1.671000123E0
2.248613291E0,-1.860000044E-1,9.121950150E0,1.789950132E0
2.251119464E0,-2.595000155E-2,9.502950668E0,2.049000025E0
2.253626231E0,1.150500029E-1,1.002495003E1,2.290950060E0
2.256133919E0,2.110500038E-1,1.030200005E1,2.370000124E0
2.258640690E0,2.629500031E-1,1.014705086E1,2.194950104E0
2.261146862E0,2.509500086E-1,9.676950455E0,1.900950074E0
2.263653629E0,2.299500108E-1,9.145950317E0,1.594050050E0
2.266161322E0,1.909500062E-1,8.926050186E0,1.399950027E0
2.268668098E0,1.600500047E-1,9.057000160E0,1.414950013E0
2.271174252E0,6.705000252E-2,9.493050575E0,1.608000040E0
2.273681250E0,-3.495000303E-2,9.964950562E0,1.848000050E0
2.276188711E0,-1.500000060E-1,1.017105007E1,1.915050149E0
2.278695713E0,-2.389500141E-1,1.000995064E1,1.857000113E0
2.281201636E0,-2.890500128E-1,9.522000313E0,1.752000093E0
2.283708404E0,-2.700000107E-1,9.108000755E0,1.678050041E0
2.286216096E0,-1.879500151E-1,9.012000084E0,1.726050138E0
2.288723098E0,-3.000000119E-2,9.406949997E0,2.014950037E0
2.291229035E0,1.429500133E-1,9.991050720E0,2.344050169E0
2.293736033E0,2.460000068E-1,1.037400055E1,2.442000151E0
2.296243715E0,2.850000262E-1,1.029795074E1,2.335950136E0
2.298750487E0,2.970000207E-1,9.807000160E0,1.969950080E0
2.301256410E0,2.250000089E-1,9.250950813E0,1.599000096E0
2.303763196E0,1.750500053E-1,8.988000870E0,1.369050026E0
2.306271119E0,4.500000179E-2,9.091050148E0,1.398000121E0
2.308777905E0,-3.495000303E-2,9.450000763E0,1.599000096E0
2.311283828E0,-1.429500133E-1,9.904950142E0,1.819050074E0
2.313790610E0,-2.269500047E-1,1.016595078E1,1.900950074E0
2.316298533E0,-3.319500089E-1,1.010400009E1,1.845000029E0
2.318805304E0,-3.270000219E-1,9.711000443E0,1.756950140E0
2.321311227E0,-2.820000052E-1,9.261000633E0,1.668000102E0
2.323817994E0,-1.549500078E-1,9.000000000E0,1.663950086E0
2.326325917E0,-1.950000064E-3,9.213000298E0,1.897950053E0
2.328832689E0,1.549500078E-1,9.784950256E0,2.212050200E0
2.331338612E0,2.939999998E-1,1.029300022E1,2.395950079E0
2.333845610E0,3.060000241E-1,1.038600063E1,2.332050085E0
2.336353302E0,2.939999998E-1,9.946050644E0,2.037000179E0
2.338860073E0,2.250000089E-1,9.292050362E0,1.654050112E0
2.341365991E0,1.600500047E-1,8.815050125E0,1.357050061E0
2.343872989E0,7.605000585E-2,8.787000656E0,1.309050083E0
2.346380451E0,1.695000008E-2,9.253950119E0,1.537050128E0
2.348887453E0,-7.605000585E-2,9.867000580E0,1.845000029E0
2.351393376E0,-1.399500072E-1,1.023000050E1,1.975050092E0
2.353900390E0,-1.999500096E-1,1.019205093E1,1.896000147E0
2.356408082E0,-2.580000162E-1,9.735000610E0,1.744950056E0
2.358914843E0,-2.359500080E-1,9.232050896E0,1.648950100E0
2.361420767E0,-1.429500133E-1,9.025950432E0,1.687050104E0
2.363927765E0,-2.595000155E-2,9.211050034E0,1.908000112E0
2.366435457E0,1.170000061E-1,9.802050591E0,2.209050179E0
2.368942228E0,1.909500062E-1,1.030695057E1,2.434050083E0
2.371448151E0,2.560500205E-1,1.040505028E1,2.434050083E0
2.373955149E0,2.149500102E-1,1.000305080E1,2.130000114E0
2.376462842E0,2.029500157E-1,9.406949997E0,1.752000093E0
2.378969613E0,1.219500080E-1,8.941950798E0,1.477050066E0
2.381475555E0,8.100000024E-2,8.926050186E0,1.387950063E0
2.383982553E0,3.795000166E-2,9.318000793E0,1.531950116E0
2.386490245E0,-1.605000161E-2,9.855000496E0,1.750050068E0
2.388997031E0,-1.020000055E-1,1.022805023E1,1.915050149E0
2.391502954E0,-2.029500157E-1,1.020705032E1,1.893000126E0
2.394009937E0,-2.869500220E-1,9.807000160E0,1.752000093E0
2.396517630E0,-2.869500220E-1,9.238950729E0,1.618050098E0
2.399024401E0,-2.310000062E-1,8.959050179E0,1.623000026E0
2.401530324E0,-1.170000061E-1,9.153000832E0,1.848000050E0
2.404037322E0,1.905000024E-2,9.739950180E0,2.157000065E0
2.406545014E0,1.699500084E-1,1.029495049E1,2.391000032E0
2.409051786E0,2.440500110E-1,1.042200089E1,2.379000187E0
2.411557940E0,2.800500095E-1,1.004895020E1,2.077950001E0
2.414064707E0,2.560500205E-1,9.414000511E0,1.707000136E0
2.416572399E0,2.490000129E-1,8.952000618E0,1.375950098E0
2.419079170E0,1.960500032E-1,8.866050720E0,1.291950107E0
2.421585324E0,1.080000028E-1,9.189000130E0,1.458000064E0
2.424092091E0,7.050000131E-3,9.679950714E0,1.744950056E0
2.426599784E0,-1.140000075E-1,1.009905052E1,1.912950039E0
2.429106555E0,-2.389500141E-1,1.017105007E1,1.929000139E0
2.431612700E0,-3.340500295E-1,9.835050583E0,1.848000050E0
2.434119467E0,-3.460500240E-1,9.340050697E0,1.723050117E0
2.436627173E0,-2.599500120E-1,9.004950523E0,1.642050028E0
2.439134022E0,-1.360500008E-1,9.081000328E0,1.780950069E0
2.441640098E0,3.299999982E-2,9.615000725E0,2.110949993E0
2.444146943E0,1.789500117E-1,1.019895077E1,2.377050161E0
2.446654558E0,3.010500073E-1,1.043895054E1,2.418000221E0
2.449161406E0,3.280500174E-1,1.017795086E1,2.206950188E0
2.451667483E0,2.850000262E-1,9.570000648E0,1.873950124E0
2.454174250E0,1.870500147E-1,9.060000420E0,1.534050107E0
2.456681943E0,1.150500029E-1,8.863050461E0,1.345050097E0
2.459188791E0,3.600000218E-2,9.151050568E0,1.470000029E0
2.461694868E0,-4.695000127E-2,9.700950623E0,1.771050096E0
2.464201712E0,-1.450500041E-1,1.019505024E1,1.975050092E0
2.466709327E0,-2.170500159E-1,1.030500031E1,1.933950067E0
2.469216118E0,-2.910000086E-1,9.958050728E0,1.771050096E0
2.471722271E0,-2.770500183E-1,9.451950073E0,1.636950135E0
2.474229039E0,-2.220000178E-1,9.064050674E0,1.606050134E0
2.476736789E0,-9.705000371E-2,9.073950768E0,1.755000114E0
2.479243560E0,6.195000187E-2,9.526950836E0,2.037000179E0
2.481749637E0,1.890000105E-1,1.012800026E1,2.296050072E0
2.484256481E0,2.440500110E-1,1.039800072E1,2.382000208E0
2.486764102E0,2.149500102E-1,1.016805077E1,2.197050095E0
2.489270950E0,1.789500117E-1,9.607950211E0,1.857000113E0
2.491777027E0,1.339500099E-1,9.040950775E0,1.531950116E0
2.494283794E0,9.600000083E-2,8.803050041E0,1.350000024E0
2.496791563E0,4.500000179E-2,9.021000862E0,1.423950076E0
2.499298334E0,-1.395000052E-2,9.535950661E0,1.663950086E0
2.501804411E0,-8.100000024E-2,1.003395081E1,1.888950109E0
2.504311255E0,-1.639500111E-1,1.024005032E1,1.933950067E0
2.506818948E0,-2.479500175E-1,9.991050720E0,1.813950062E0
2.509325719E0,-2.959500253E-1,9.454950333E0,1.671000123E0
2.511831796E0,-2.629500031E-1,9.009000778E0,1.606050134E0
2.514338625E0,-1.549500078E-1,8.992950439E0,1.735050082E0
2.516846317E0,-2.295000106E-2,9.486000061E0,2.032050133E0
2.519353089E0,1.339500099E-1,1.012305069E1,2.359950066E0
2.521859186E0,2.509500086E-1,1.045095062E1,2.514000177E0
2.524366030E0,2.989500165E-1,1.029300022E1,2.359950066E0
2.526873722E0,2.850000262E-1,9.718050003E0,1.972050071E0
2.529380463E0,2.250000089E-1,9.163050652E0,1.599000096E0
2.531886540E0,1.960500032E-1,8.938050270E0,1.369050026E0
2.534393379E0,8.805000782E-2,9.115050316E0,1.429050088E0
2.536901072E0,1.395000052E-2,9.586050034E0,1.654050112E0
2.539407824E0,-1.000500023E-1,1.005300045E1,1.855050087E0
2.541913901E0,-1.789500117E-1,1.021395016E1,1.884000063E0
2.544420745E0,-2.869500220E-1,1.000095081E1,1.786050081E0
2.546928437E0,-3.490500152E-1,9.559950829E0,1.692000031E0
2.549435209E0,-3.340500295E-1,9.151050568E0,1.627950072E0
2.551941285E0,-1.999500096E-1,9.060000420E0,1.699050069E0
2.554447946E0,-6.900000572E-2,9.364050865E0,1.941000104E0
2.556954551E0,9.795000404E-2,9.886050224E0,2.287950039E0
2.559462591E0,2.149500102E-1,1.026600075E1,2.431950092E0
2.561968670E0,2.340000123E-1,1.028805065E1,2.320050001E0
2.564475514E0,2.509500086E-1,9.892950058E0,1.993950129E0
2.566983168E0,1.990500093E-1,9.273000717E0,1.639950037E0
2.569489939E0,1.410000026E-1,8.851050377E0,1.350000024E0
2.571996031E0,1.050000042E-1,8.866050720E0,1.297050118E0
2.574502875E0,4.095000029E-2,9.321000099E0,1.522050023E0
2.577010567E0,-4.500000179E-2,9.898050308E0,1.845000029E0
2.579517323E0,-1.210500076E-1,1.022100067E1,1.944000125E0
2.582023482E0,-1.909500062E-1,1.012500095E1,1.896000147E0
2.584530250E0,-2.290500104E-1,9.703950882E0,1.798050046E0
2.587037942E0,-2.599500120E-1,9.237000465E0,1.708950043E0
2.589544713E0,-1.860000044E-1,9.032999992E0,1.743000031E0
2.592050867E0,-6.105000153E-2,9.246000290E0,1.939050078E0
2.594557634E0,7.605000585E-2,9.782999992E0,2.238000154E0
2.597065326E0,2.110500038E-1,1.028295040E1,2.434050083E0
2.599572098E0,2.800500095E-1,1.040505028E1,2.382000208E0
2.602078252E0,2.560500205E-1,1.001295090E1,2.062950134E0
2.604585019E0,2.110500038E-1,9.397050858E0,1.699050069E0
2.607092711E0,1.630500108E-1,8.962050438E0,1.422000051E0
2.609599699E0,1.000500023E-1,8.973000526E0,1.371000051E0
2.612105622E0,1.905000024E-2,9.342000008E0,1.522050023E0
2.614612634E0,-7.304999977E-2,9.844950676E0,1.762050033E0
2.617120096E0,-1.720500141E-1,1.021905041E1,1.909950137E0
2.619627079E0,-2.580000162E-1,1.017495060E1,1.864950061E0
2.622132992E0,-3.250500262E-1,9.768000603E0,1.755000114E0
2.624639759E0,-3.270000219E-1,9.229950905E0,1.615950108E0
2.627147451E0,-2.719500065E-1,8.959050179E0,1.615950108E0
2.629654453E0,-1.240500063E-1,9.129000664E0,1.861950040E0
2.632160377E0,5.205000192E-2,9.709050179E0,2.200050116E0
2.634667144E0,1.840500087E-1,1.024200058E1,2.371950150E0
2.637174836E0,2.509500086E-1,1.039605045E1,2.371950150E0
2.639681838E0,2.899500132E-1,1.005105019E1,2.122950077E0
2.642187761E0,2.389500141E-1,9.418950081E0,1.776000142E0
2.644694528E0,2.110500038E-1,8.989950180E0,1.467000127E0
2.647202451E0,1.480500102E-1,8.917950630E0,1.326000094E0
2.649709271E0,8.805000782E-2,9.229950905E0,1.477050066E0
2.652215194E0,-1.800000109E-2,9.709050179E0,1.728000045E0
2.654722178E0,-8.295000345E-2,1.007205009E1,1.885950089E0
2.657229870E0,-1.980000138E-1,1.014705086E1,1.897950053E0
2.659736650E0,-2.719500065E-1,9.844950676E0,1.819050074E0
2.662242588E0,-2.719500065E-1,9.373050690E0,1.720950127E0
2.664749356E0,-2.149500102E-1,9.021000862E0,1.668000102E0
2.667257279E0,-8.505000174E-2,9.117000580E0,1.831050038E0
2.669764050E0,8.595000207E-2,9.615000725E0,2.125950098E0
2.672269973E0,2.220000178E-1,1.017105007E1,2.443950176E0
2.674776971E0,2.850000262E-1,1.041195011E1,2.467950106E0
2.677284663E0,2.850000262E-1,1.014705086E1,2.229000092E0
2.679791435E0,2.179500163E-1,9.562050819E0,1.869000077E0
2.682297358E0,1.309500039E-1,9.067049980E0,1.495950103E0
2.684804356E0,6.900000572E-2,8.911050797E0,1.345050097E0
2.687312048E0,-4.050000105E-3,9.169950485E0,1.411950111E0
2.689818799E0,-8.805000782E-2,9.664950371E0,1.714050055E0
2.692324722E0,-1.279500127E-1,1.011105061E1,1.885950089E0
2.694831720E0,-2.100000083E-1,1.020405006E1,1.924950123E0
2.697339448E0,-2.719500065E-1,9.922050476E0,1.800000072E0
2.699846219E0,-2.749500275E-1,9.486000061E0,1.738050103E0
2.702352142E0,-2.220000178E-1,9.154950142E0,1.699050069E0
2.704859121E0,-1.069500074E-1,9.124050140E0,1.786050081E0
2.707366813E0,2.400000021E-2,9.471000671E0,2.025000095E0
2.709873580E0,1.549500078E-1,1.000500011E1,2.278950214E0
2.712379503E0,2.490000129E-1,1.033095074E1,2.401050091E0
2.714886501E0,2.440500110E-1,1.021905041E1,2.217000008E0
2.717394227E0,2.460000068E-1,9.703950882E0,1.852950096E0
2.719900998E0,2.320500165E-1,9.139050484E0,1.506000042E0
2.722407152E0,1.890000105E-1,8.881950378E0,1.309050083E0
2.724913919E0,1.339500099E-1,9.013950348E0,1.359000087E0
2.727421612E0,4.800000042E-2,9.487950325E0,1.585050106E0
2.729928383E0,-5.205000192E-2,9.937950134E0,1.837950110E0
2.732434537E0,-1.500000060E-1,1.017300034E1,1.941000104E0
2.734941304E0,-2.530499995E-1,9.973950386E0,1.843050122E0
2.737448996E0,-3.220500052E-1,9.507000923E0,1.755000114E0
2.739955767E0,-3.130500019E-1,9.055050850E0,1.690050125E0
2.742461920E0,-2.269500047E-1,9.000000000E0,1.804950118E0
2.744968688E0,-9.300000221E-2,9.426000595E0,2.049000025E0
2.747476380E0,5.700000376E-2,9.993000031E0,2.344050169E0
2.749983151E0,2.130000144E-1,1.039305019E1,2.439000130E0
2.752489305E0,2.779500186E-1,1.030695057E1,2.272050142E0
2.754996072E0,3.060000241E-1,9.828000069E0,1.917000055E0
2.757503764E0,2.560500205E-1,9.265950203E0,1.615950108E0
2.760010556E0,1.870500147E-1,9.000000000E0,1.410000086E0
2.762516710E0,1.050000042E-1,9.117000580E0,1.446000099E0
2.765023477E0,1.395000052E-2,9.505050659E0,1.672950029E0
2.767531169E0,-9.000000358E-2,9.979050636E0,1.891050100E0
2.770037940E0,-2.119500041E-1,1.022295094E1,1.929000139E0
2.772544094E0,-3.010500073E-1,1.012305069E1,1.897950053E0
2.775050861E0,-3.270000219E-1,9.718050003E0,1.801950097E0
2.777558554E0,-2.890500128E-1,9.202950478E0,1.660950065E0
2.780065402E0,-1.549500078E-1,8.989950180E0,1.651950121E0
2.782571479E0,3.105000220E-2,9.261000633E0,1.845000029E0
2.785078323E0,1.669500023E-1,9.852000237E0,2.158950090E0
2.787585938E0,2.869500220E-1,1.032600021E1,2.302950144E0
2.790092787E0,2.850000262E-1,1.035000038E1,2.250000000E0
2.792598864E0,2.629500031E-1,9.898050308E0,2.013000011E0
2.795105712E0,1.630500108E-1,9.258000374E0,1.668000102E0
2.797613404E0,1.099500060E-1,8.824950218E0,1.363950014E0
2.800120175E0,3.299999982E-2,8.847000122E0,1.324050069E0
2.802626223E0,-2.805000171E-2,9.285000801E0,1.582050085E0
2.805132990E0,-9.300000221E-2,9.852000237E0,1.855050087E0
2.807640683E0,-1.450500041E-1,1.016100025E1,1.941000104E0
2.810147531E0,-2.410500050E-1,1.009200001E1,1.840950131E0
2.812653608E0,-2.820000052E-1,9.687000275E0,1.738050103E0
2.815160375E0,-2.719500065E-1,9.250950813E0,1.668000102E0
2.817668144E0,-1.759500057E-1,9.091050148E0,1.704000115E0
2.820174915E0,-2.595000155E-2,9.309000015E0,1.905000091E0
2.822680992E0,1.309500039E-1,9.796950340E0,2.206950188E0
2.825187837E0,2.539499998E-1,1.025895023E1,2.446050167E0
2.827695529E0,2.749500275E-1,1.038105011E1,2.425050020E0
2.830202300E0,2.700000107E-1,1.003695011E1,2.149950027E0
2.832708368E0,2.340000123E-1,9.414000511E0,1.774050117E0
2.835215135E0,1.939500123E-1,8.985000610E0,1.489050031E0
2.837722909E0,1.200000048E-1,8.911050797E0,1.402950048E0
2.840229680E0,4.500000179E-2,9.309000015E0,1.551000118E0
2.842735757E0,-3.795000166E-2,9.889950752E0,1.810050130E0
2.845242601E0,-1.380000114E-1,1.027395058E1,1.924950123E0
2.847750313E0,-2.190000117E-1,1.022100067E1,1.855050087E0
2.850257084E0,-2.910000086E-1,9.754050255E0,1.696950078E0
2.852763247E0,-3.010500073E-1,9.205950737E0,1.585050106E0
2.855270014E0,-2.290500104E-1,8.971050262E0,1.612950087E0
2.857777707E0,-1.120500043E-1,9.199050903E0,1.857000113E0
2.860284478E0,2.595000155E-2,9.747000694E0,2.193000078E0
2.862790632E0,1.549500078E-1,1.029795074E1,2.446050167E0
2.865297399E0,2.179500163E-1,1.039305019E1,2.383949995E0
2.867805091E0,2.610000074E-1,9.988950729E0,2.074949980E0
2.870311863E0,2.029500157E-1,9.346950531E0,1.692000031E0
2.872818017E0,1.669500023E-1,8.928000450E0,1.411950111E0
2.875324784E0,1.309500039E-1,8.887050629E0,1.324050069E0
2.877832510E0,6.705000252E-2,9.213000298E0,1.477050066E0
2.880339281E0,-1.605000161E-2,9.718050003E0,1.740000129E0
2.882845459E0,-1.090500057E-1,1.010595036E1,1.915050149E0
2.885352226E0,-2.119500041E-1,1.014405060E1,1.915050149E0
2.887859924E0,-2.980500162E-1,9.831000328E0,1.834050059E0
2.890366695E0,-3.220500052E-1,9.345000267E0,1.726050138E0
2.892872849E0,-2.629500031E-1,8.992950439E0,1.690050125E0
2.895379616E0,-1.260000020E-1,9.109950066E0,1.801950097E0
2.897887308E0,6.195000187E-2,9.651000023E0,2.101950169E0
2.900394080E0,2.320500165E-1,1.023495007E1,2.370000124E0
2.902900233E0,3.090000153E-1,1.043400097E1,2.401050091E0
2.905407001E0,3.090000153E-1,1.014900017E1,2.205000162E0
2.907914693E0,2.680500150E-1,9.514950752E0,1.836000085E0
2.910421695E0,2.110500038E-1,8.988000870E0,1.519950032E0
2.912927622E0,1.309500039E-1,8.875050545E0,1.378950119E0
2.915434389E0,2.100000158E-2,9.213000298E0,1.494000077E0
2.917942073E0,-1.050000042E-1,9.763950348E0,1.789950132E0
2.920449075E0,-2.070000172E-1,1.019205093E1,1.941000104E0
2.922954988E0,-2.530499995E-1,1.020705032E1,1.869000077E0
2.925461755E0,-3.130500019E-1,9.886050224E0,1.740000129E0
2.927969678E0,-3.060000241E-1,9.439949989E0,1.647000074E0
2.930476435E0,-2.170500159E-1,9.130949974E0,1.632000089E0
2.932982372E0,-7.304999977E-2,9.166950226E0,1.786050081E0
2.935489140E0,6.000000238E-2,9.565050125E0,2.026950121E0
2.937996832E0,1.890000105E-1,1.005105019E1,2.308050156E0
2.940503834E0,2.389500141E-1,1.030500031E1,2.410950184E0
2.943009757E0,2.580000162E-1,1.012005043E1,2.226000071E0
2.945516524E0,2.130000144E-1,9.594000816E0,1.900950074E0
2.948024217E0,1.309500039E-1,9.091050148E0,1.570050120E0
2.950531219E0,1.030500084E-1,8.892000198E0,1.338000059E0
2.953037142E0,5.205000192E-2,9.064050674E0,1.417050123E0
2.955544140E0,-1.950000064E-3,9.523950577E0,1.627950072E0
2.958051601E0,-9.300000221E-2,1.002495003E1,1.848000050E0
2.960558622E0,-1.840500087E-1,1.019505024E1,1.897950053E0
2.963064545E0,-2.509500086E-1,9.949950218E0,1.810050130E0
2.965571558E0,-2.719500065E-1,9.445050240E0,1.684950113E0
2.968079251E0,-2.239500135E-1,9.021000862E0,1.644000053E0
2.970586017E0,-1.360500008E-1,9.045000076E0,1.800000072E0
2.973091940E0,-9.000000544E-3,9.522000313E0,2.121000051E0
2.975598957E0,1.290000081E-1,1.014900017E1,2.410950184E0
2.978106418E0,2.299500108E-1,1.043205070E1,2.503950119E0
2.980613420E0,2.610000074E-1,1.024200058E1,2.281050205E0
2.983119344E0,2.340000123E-1,9.643950462E0,1.869000077E0
2.985626342E0,1.870500147E-1,9.093000412E0,1.483950019E0
2.988134034E0,1.290000081E-1,8.881950378E0,1.324050069E0
2.990640805E0,6.405000389E-2,9.127050400E0,1.446000099E0
2.993146959E0,-1.800000109E-2,9.613050461E0,1.716000080E0
2.995653726E0,-1.069500074E-1,1.008900070E1,1.908000112E0
2.998161419E0,-2.170500159E-1,1.023795033E1,1.900950074E0
3.000668185E0,-3.100500107E-1,1.000500011E1,1.822050095E0
3.003174339E0,-3.460500240E-1,9.535950661E0,1.738050103E0
3.005681106E0,-2.980500162E-1,9.130949974E0,1.654050112E0
3.008188784E0,-1.759500057E-1,9.073950768E0,1.707000136E0
3.010695555E0,-4.050000105E-3,9.412050247E0,1.984050035E0
3.013201694E0,1.600500047E-1,9.960000038E0,2.263950109E0
3.015708432E0,2.730000019E-1,1.036200047E1,2.374950171E0
3.018216125E0,2.869500220E-1,1.026900005E1,2.262000084E0
3.020722973E0,2.629500031E-1,9.756000519E0,1.939050078E0
3.023228819E0,2.220000178E-1,9.175050735E0,1.579950094E0
3.025735817E0,1.579500139E-1,8.806050301E0,1.345050097E0
3.028243509E0,9.600000083E-2,8.947050095E0,1.336050034E0
3.030750358E0,1.905000024E-2,9.454950333E0,1.591950059E0
3.033256435E0,-7.800000161E-2,9.967050552E0,1.864950061E0
3.035763202E0,-1.690500081E-1,1.022100067E1,1.917000055E0
3.038270894E0,-2.220000178E-1,1.002495003E1,1.843050122E0
3.040777742E0,-2.839500010E-1,9.558000565E0,1.738050103E0
3.043283819E0,-2.599500120E-1,9.164999962E0,1.680000067E0
3.045790586E0,-1.669500023E-1,9.072000504E0,1.731000066E0
3.048298279E0,-5.895000324E-2,9.382950783E0,1.968000054E0
3.050805112E0,9.300000221E-2,9.919050217E0,2.290950060E0
3.053311189E0,1.909500062E-1,1.034295082E1,2.454000235E0
3.055817956E0,2.629500031E-1,1.030695057E1,2.365050077E0
3.058325667E0,2.440500110E-1,9.847050667E0,2.053950071E0
3.060832516E0,1.990500093E-1,9.286950111E0,1.696950078E0
3.063338592E0,1.750500053E-1,8.973000526E0,1.443000078E0
3.065845360E0,8.100000024E-2,8.995050430E0,1.387950063E0
3.068353081E0,1.905000024E-2,9.394950867E0,1.564950109E0
3.070859929E0,-7.605000585E-2,9.904950142E0,1.810050130E0
3.073366006E0,-1.690500081E-1,1.024200058E1,1.956000090E0
3.075872773E0,-2.749500275E-1,1.019700050E1,1.896000147E0
3.078380466E0,-3.199500144E-1,9.756000519E0,1.719000101E0
3.080887314E0,-2.790000141E-1,9.193950653E0,1.611000061E0
3.083393391E0,-1.960500032E-1,8.962050438E0,1.647000074E0
3.085900158E0,-4.905000329E-2,9.222000122E0,1.915050149E0
3.088407850E0,1.150500029E-1,9.850050926E0,2.238000154E0
3.090914698E0,2.320500165E-1,1.036500072E1,2.434050083E0
3.093420842E0,2.939999998E-1,1.038405037E1,2.367000103E0
3.095927610E0,2.939999998E-1,9.895050049E0,2.037000179E0
3.098435302E0,2.680500150E-1,9.282000542E0,1.648950100E0
3.100942069E0,1.819500029E-1,8.880000114E0,1.371000051E0
3.103448146E0,1.099500060E-1,8.893950462E0,1.321050048E0
3.105954990E0,3.795000166E-2,9.268050194E0,1.539000034E0
3.108462586E0,-6.105000153E-2,9.814050674E0,1.800000072E0
3.110969434E0,-1.690500081E-1,1.015095043E1,1.900950074E0
3.113475511E0,-2.749500275E-1,1.013505077E1,1.861950040E0
3.115982355E0,-3.340500295E-1,9.759000778E0,1.777950048E0
3.118489970E0,-3.180000186E-1,9.244050026E0,1.666050076E0
3.120996818E0,-2.340000123E-1,8.962050438E0,1.680000067E0
3.123502895E0,-5.400000140E-2,9.163050652E0,1.872000098E0
3.126009739E0,1.000500023E-1,9.778050423E0,2.212050200E0
3.128517432E0,2.340000123E-1,1.035000038E1,2.473050117E0
3.131024203E0,3.060000241E-1,1.045305061E1,2.422950029E0
3.133530357E0,2.920500040E-1,1.004400063E1,2.128050089E0
3.136037124E0,2.389500141E-1,9.397050858E0,1.771050096E0
3.138544821E0,1.429500133E-1,8.896950722E0,1.455000043E0
3.141051593E0,7.905000448E-2,8.820000648E0,1.336050034E0
3.143557741E0,-1.950000064E-3,9.277950287E0,1.540950060E0
3.146064509E0,-6.900000572E-2,9.888000488E0,1.855050087E0
3.148572201E0,-1.480500102E-1,1.032405090E1,1.969950080E0
3.151078972E0,-2.190000117E-1,1.024995041E1,1.893000126E0
3.153585126E0,-2.790000141E-1,9.778050423E0,1.720950127E0
3.156091893E0,-2.550000250E-1,9.249000549E0,1.644000053E0
3.158599586E0,-1.759500057E-1,9.040950775E0,1.632000089E0
3.161106357E0,-4.500000179E-2,9.232050896E0,1.822050095E0
3.163612511E0,8.595000207E-2,9.732000351E0,2.121000051E0
3.166119278E0,2.080500126E-1,1.021905041E1,2.355000019E0
3.168626970E0,2.460000068E-1,1.034295082E1,2.389050007E0
3.171133972E0,2.539499998E-1,1.002495003E1,2.130000114E0
3.173639895E0,2.010000050E-1,9.427950859E0,1.762050033E0
3.176146663E0,1.429500133E-1,8.968950272E0,1.447950125E0
3.178654351E0,1.120500043E-1,8.872950554E0,1.351950049E0
3.181161353E0,6.000000238E-2,9.142950058E0,1.429050088E0
3.183667271E0,1.200000010E-2,9.663000107E0,1.672950029E0
3.186174038E0,-8.100000024E-2,1.009905052E1,1.861950040E0
3.188681692E0,-1.720500141E-1,1.018305016E1,1.912950039E0
3.191188694E0,-2.749500275E-1,9.844950676E0,1.801950097E0
3.193694588E0,-3.100500107E-1,9.322950363E0,1.695000052E0
3.196201586E0,-2.670000196E-1,8.995050430E0,1.647000074E0
3.198709047E0,-1.519500017E-1,9.120000839E0,1.837950110E0
3.201216049E0,-9.000000544E-3,9.618000031E0,2.169000149E0
3.203721972E0,1.669500023E-1,1.023000050E1,2.419950008E0
3.206228970E0,2.539499998E-1,1.044405079E1,2.442000151E0
3.208736432E0,3.109500110E-1,1.016805077E1,2.200050116E0
3.211243434E0,2.970000207E-1,9.559950829E0,1.800000072E0
3.213749357E0,2.509500086E-1,9.043050766E0,1.477050066E0
3.216256355E0,1.870500147E-1,8.908950806E0,1.339950085E0
3.218763817E0,9.600000083E-2,9.177000046E0,1.474050045E0
3.221270810E0,-1.800000109E-2,9.655950546E0,1.735050082E0
3.223776733E0,-1.380000114E-1,1.011600018E1,1.893000126E0
3.226283726E0,-2.599500120E-1,1.025700092E1,1.933950067E0
3.228791187E0,-3.180000186E-1,9.997950554E0,1.861950040E0
3.231298184E0,-3.439500034E-1,9.481050491E0,1.731000066E0
3.233804107E0,-2.550000250E-1,9.045000076E0,1.612950087E0
3.236311105E0,-1.210500076E-1,9.031050682E0,1.708950043E0
3.238818745E0,4.500000179E-2,9.471000671E0,2.035050154E0
3.241325516E0,1.789500117E-1,1.011300087E1,2.314950228E0
3.243831439E0,2.700000107E-1,1.041000080E1,2.374950171E0
3.246338437E0,2.629500031E-1,1.022595024E1,2.169000149E0
3.248846129E0,2.440500110E-1,9.606000900E0,1.864950061E0
3.251352900E0,1.840500087E-1,8.995050430E0,1.546050072E0
3.253858824E0,1.030500084E-1,8.760000229E0,1.363950014E0
3.256365822E0,3.105000220E-2,9.009000778E0,1.455000043E0
3.258873514E0,-4.500000179E-2,9.570000648E0,1.756950140E0
3.261380285E0,-1.140000075E-1,1.006800079E1,1.992000103E0
3.263886189E0,-1.669500023E-1,1.027605057E1,1.948050141E0
3.266393187E0,-2.340000123E-1,1.000305080E1,1.795050144E0
3.268900807E0,-2.410500050E-1,9.487950325E0,1.668000102E0
3.271407579E0,-2.119500041E-1,9.045000076E0,1.615950108E0
3.273913478E0,-6.599999964E-2,9.072000504E0,1.738050103E0
3.276420447E0,6.705000252E-2,9.495000839E0,1.996050119E0
3.278928139E0,1.890000105E-1,1.013505077E1,2.314950228E0
3.281434987E0,2.490000129E-1,1.046295071E1,2.499000072E0
3.283940833E0,2.629500031E-1,1.029300022E1,2.332050085E0
3.286447831E0,2.149500102E-1,9.658050537E0,1.951050043E0
3.288955524E0,1.549500078E-1,9.057000160E0,1.606050134E0
3.291462295E0,1.270500124E-1,8.832000732E0,1.395000100E0
3.293968449E0,2.895000204E-2,9.069000244E0,1.450050116E0
3.296475216E0,-2.805000171E-2,9.589050293E0,1.624950051E0
3.298982908E0,-9.705000371E-2,1.006800079E1,1.792950034E0
3.301489752E0,-1.909500062E-1,1.023000050E1,1.860000134E0
3.303995828E0,-2.790000141E-1,1.001505089E1,1.771050096E0
3.306502596E0,-3.250500262E-1,9.502950668E0,1.651950121E0
3.309010297E0,-2.939999998E-1,9.084000587E0,1.576950073E0
3.311517068E0,-1.879500151E-1,9.016950607E0,1.683000088E0
3.314023189E0,-6.599999964E-2,9.415950775E0,2.008050203E0
3.316529965E0,8.100000024E-2,1.001295090E1,2.344050169E0
3.319037658E0,2.010000050E-1,1.036500072E1,2.463000059E0
3.321544429E0,2.580000162E-1,1.026195049E1,2.332050085E0
3.324050583E0,2.939999998E-1,9.768000603E0,2.017950058E0
3.326557350E0,2.509500086E-1,9.184050560E0,1.615950108E0
3.329065119E0,2.200500071E-1,8.899050713E0,1.347000122E0
3.331571890E0,1.600500047E-1,9.001950264E0,1.347000122E0
3.334077967E0,8.595000207E-2,9.388050079E0,1.591950059E0
3.336584812E0,-2.595000155E-2,9.904950142E0,1.860000134E0
3.339092504E0,-1.189500093E-1,1.023495007E1,1.932000041E0
3.341599270E0,-2.340000123E-1,1.012800026E1,1.872000098E0
3.344105347E0,-2.839500010E-1,9.709050179E0,1.777950048E0
3.346612187E0,-2.959500253E-1,9.157950401E0,1.675950050E0
3.349119880E0,-1.810500026E-1,8.932950020E0,1.680000067E0
3.351626651E0,-1.800000109E-2,9.237000465E0,1.917000055E0
3.354132767E0,1.150500029E-1,9.850050926E0,2.275950193E0
3.356639611E0,2.250000089E-1,1.037895012E1,2.487000227E0
3.359147226E0,2.610000074E-1,1.039800072E1,2.391000032E0
3.361654093E0,2.659500241E-1,9.913950920E0,2.068050146E0
3.364160170E0,1.960500032E-1,9.246000290E0,1.660950065E0
3.366667014E0,1.170000061E-1,8.848950386E0,1.369050026E0
3.369174707E0,4.095000029E-2,8.880000114E0,1.345050097E0
3.371681478E0,-4.200000316E-2,9.354000092E0,1.579950094E0
3.374187555E0,-1.240500063E-1,9.943050385E0,1.855050087E0
3.376694399E0,-1.960500032E-1,1.029000092E1,1.941000104E0
3.379202091E0,-2.479500175E-1,1.017795086E1,1.824000120E0
3.381708863E0,-2.670000196E-1,9.720000267E0,1.696950078E0
3.384214955E0,-2.509500086E-1,9.246000290E0,1.642050028E0
3.386721799E0,-1.840500087E-1,9.028950691E0,1.666050076E0
3.389229476E0,-2.805000171E-2,9.262950897E0,1.884000063E0
3.391736247E0,1.170000061E-1,9.816000938E0,2.197050095E0
3.394242406E0,2.340000123E-1,1.026900005E1,2.382000208E0
3.396749173E0,2.730000019E-1,1.035300064E1,2.332050085E0
3.399256866E0,2.629500031E-1,9.940950394E0,2.074949980E0
3.401763666E0,2.179500163E-1,9.334950447E0,1.747050047E0
3.404269820E0,1.789500117E-1,8.890050888E0,1.462050080E0
3.406776587E0,1.200000048E-1,8.892000198E0,1.407000065E0
3.409284279E0,6.000000238E-2,9.292050362E0,1.539000034E0
3.411791051E0,-2.595000155E-2,9.811050415E0,1.765950084E0
3.414297204E0,-1.090500057E-1,1.015905094E1,1.864950061E0
3.416803972E0,-2.290500104E-1,1.011600018E1,1.786050081E0
3.419311664E0,-3.060000241E-1,9.720000267E0,1.716000080E0
3.421818666E0,-2.869500220E-1,9.211050034E0,1.624950051E0
3.424324608E0,-2.340000123E-1,8.929950714E0,1.644000053E0
3.426831375E0,-1.020000055E-1,9.164999962E0,1.893000126E0
3.429339131E0,5.700000376E-2,9.760950089E0,2.274000168E0
3.431846133E0,1.770000011E-1,1.032405090E1,2.523000002E0
3.434352075E0,2.580000162E-1,1.044105053E1,2.506050110E0
3.436858842E0,2.800500095E-1,1.005795002E1,2.205000162E0
3.439366534E0,2.490000129E-1,9.412050247E0,1.789950132E0
3.441873536E0,1.699500084E-1,8.992950439E0,1.443000078E0
3.444379487E0,1.290000081E-1,8.941950798E0,1.345050097E0
3.446886485E0,5.505000427E-2,9.286950111E0,1.467000127E0
3.449393947E0,-1.800000109E-2,9.790050507E0,1.723050117E0
3.451900949E0,-1.140000075E-1,1.016100025E1,1.879050136E0
3.454406872E0,-2.220000178E-1,1.017795086E1,1.884000063E0
3.456913870E0,-3.079500198E-1,9.880950928E0,1.788000107E0
3.459421332E0,-3.100500107E-1,9.390000343E0,1.714050055E0
3.461928334E0,-2.479500175E-1,9.037950516E0,1.671000123E0
3.464434257E0,-1.000500023E-1,9.109950066E0,1.786050081E0
3.466941255E0,6.000000238E-2,9.565050125E0,2.086950064E0
3.469448716E0,1.990500093E-1,1.013700008E1,2.355000019E0
3.471955718E0,2.700000107E-1,1.039095020E1,2.370000124E0
3.474461650E0,2.700000107E-1,1.014900017E1,2.145000219E0
3.476968418E0,2.419500053E-1,9.541050911E0,1.788000107E0
3.479476351E0,1.840500087E-1,8.985000610E0,1.438050032E0
3.481983122E0,1.170000061E-1,8.832000732E0,1.288050056E0
3.484489271E0,4.095000029E-2,9.079050064E0,1.386000037E0
3.486996043E0,-2.595000155E-2,9.622050285E0,1.699050069E0
3.489503735E0,-1.120500043E-1,1.009395027E1,1.933950067E0
3.492010506E0,-1.879500151E-1,1.016805077E1,1.924950123E0
3.494516660E0,-2.770500183E-1,9.889950752E0,1.819050074E0
3.497023428E0,-2.890500128E-1,9.460050583E0,1.735050082E0
3.499531120E0,-2.359500080E-1,9.120000839E0,1.711050034E0
3.502037891E0,-1.260000020E-1,9.127050400E0,1.836000085E0
3.504544045E0,1.950000064E-3,9.511950493E0,2.097000122E0
3.507050812E0,1.339500099E-1,1.003395081E1,2.347950220E0
3.509558505E0,2.250000089E-1,1.035300064E1,2.451000214E0
3.512065276E0,2.730000019E-1,1.019895077E1,2.278950214E0
3.514571435E0,2.700000107E-1,9.694050789E0,1.933950067E0
3.517078202E0,2.110500038E-1,9.164999962E0,1.615950108E0
3.519585879E0,1.459500045E-1,8.989950180E0,1.426050067E0
3.522092727E0,8.595000207E-2,9.175050735E0,1.450050116E0
3.524598799E0,1.905000024E-2,9.610050201E0,1.632000089E0
3.527105566E0,-7.304999977E-2,1.005300045E1,1.798050046E0
3.529613250E0,-2.170500159E-1,1.018005085E1,1.825950146E0
3.532120098E0,-3.010500073E-1,9.991050720E0,1.786050081E0
3.534626175E0,-3.370500207E-1,9.511950493E0,1.690050125E0
3.537132942E0,-3.100500107E-1,9.096000671E0,1.627950072E0
3.539640634E0,-2.050500065E-1,9.019050598E0,1.720950127E0
3.542147483E0,-2.295000106E-2,9.409049988E0,1.987050056E0
3.544653560E0,1.120500043E-1,1.000800037E1,2.314950228E0
3.547160327E0,2.110500038E-1,1.036200047E1,2.407950163E0
3.549668019E0,2.509500086E-1,1.020705032E1,2.218950033E0
3.552174867E0,2.419500053E-1,9.700950623E0,1.893000126E0
3.554681351E0,1.960500032E-1,9.142950058E0,1.561050057E0
3.557187962E0,1.410000026E-1,8.904000282E0,1.374000072E0
3.559695418E0,1.030500084E-1,9.028950691E0,1.381050110E0
3.562202266E0,1.950000064E-3,9.418950081E0,1.606050134E0
3.564708353E0,-8.100000024E-2,9.868950844E0,1.828950047E0
3.567215197E0,-1.980000138E-1,1.011600018E1,1.933950067E0
3.569722826E0,-2.910000086E-1,1.006800079E1,1.893000126E0
3.572229675E0,-3.220500052E-1,9.685050011E0,1.792950034E0
3.574735751E0,-2.820000052E-1,9.190950394E0,1.671000123E0
3.577242611E0,-1.399500072E-1,9.009000778E0,1.675950050E0
3.579750226E0,1.905000024E-2,9.297000885E0,1.915050149E0
3.582257074E0,1.890000105E-1,9.916950226E0,2.274000168E0
3.584763151E0,3.010500073E-1,1.040505028E1,2.499000072E0
3.587269995E0,3.229500055E-1,1.041000080E1,2.389050007E0
3.589777611E0,2.970000207E-1,9.907050133E0,2.047049999E0
3.592284459E0,2.340000123E-1,9.253950119E0,1.647000074E0
3.594790613E0,1.270500124E-1,8.878050804E0,1.363950014E0
3.597297380E0,2.595000155E-2,8.935050011E0,1.359000087E0
3.599804994E0,-6.599999964E-2,9.400050163E0,1.591950059E0
3.602311842E0,-1.380000114E-1,9.946050644E0,1.900950074E0
3.604817929E0,-1.930500120E-1,1.022100067E1,1.933950067E0
3.607324774E0,-2.460000068E-1,1.010100079E1,1.836000085E0
3.609832466E0,-3.010500073E-1,9.711000443E0,1.723050117E0
3.612339227E0,-2.650500238E-1,9.262950897E0,1.644000053E0
3.614845304E0,-1.960500032E-1,9.055050850E0,1.699050069E0
3.617352148E0,-6.105000153E-2,9.274950027E0,1.905000091E0
3.619859845E0,7.395000011E-2,9.784950256E0,2.188050032E0
3.622366847E0,1.840500087E-1,1.022595024E1,2.353049994E0
3.624872694E0,2.460000068E-1,1.032600021E1,2.296050072E0
3.627379538E0,2.610000074E-1,9.931050301E0,2.053950071E0
3.629887230E0,1.909500062E-1,9.370950699E0,1.719000101E0
3.632394001E0,1.720500141E-1,8.947050095E0,1.458000064E0
3.634900078E0,1.390500069E-1,8.875050545E0,1.366950035E0
3.637406922E0,9.600000083E-2,9.238950729E0,1.503000021E0
3.639914615E0,1.695000008E-2,9.766050339E0,1.774050117E0
3.642421617E0,-7.800000161E-2,1.020195007E1,1.912950039E0
3.644927463E0,-1.980000138E-1,1.022100067E1,1.891050100E0
3.647434307E0,-2.820000052E-1,9.778050423E0,1.740000129E0
3.649942023E0,-2.670000196E-1,9.211050034E0,1.627950072E0
3.652448805E0,-2.190000117E-1,8.902050018E0,1.651950121E0
3.654954958E0,-9.000000358E-2,9.153000832E0,1.860000134E0
3.657461956E0,4.995000362E-2,9.790050507E0,2.217000008E0
3.659969404E0,1.840500087E-1,1.033305073E1,2.461050034E0
3.662476406E0,2.560500205E-1,1.046505070E1,2.434050083E0
3.664982329E0,2.580000162E-1,1.002000046E1,2.161950111E0
3.667489096E0,2.269500047E-1,9.448050499E0,1.756950140E0
3.669996789E0,1.890000105E-1,9.000000000E0,1.459950089E0
3.672503560E0,1.200000048E-1,8.941950798E0,1.359000087E0
3.675009714E0,1.695000008E-2,9.258000374E0,1.515000105E0
3.677516712E0,-5.400000140E-2,9.759000778E0,1.752000093E0
3.680024173E0,-1.429500133E-1,1.015605068E1,1.903050065E0
3.682531175E0,-2.580000162E-1,1.019205093E1,1.885950089E0
3.685037098E0,-3.319500089E-1,9.876000404E0,1.810050130E0
3.687544096E0,-3.270000219E-1,9.378000259E0,1.716000080E0
3.690051803E0,-2.530499995E-1,9.019050598E0,1.644000053E0
3.692558574E0,-1.210500076E-1,9.093000412E0,1.756950140E0
3.695064497E0,7.200000435E-2,9.613050461E0,2.128050089E0
3.697571495E0,2.250000089E-1,1.019700050E1,2.329050064E0
3.700079187E0,2.850000262E-1,1.039095020E1,2.365050077E0
3.702585973E0,2.800500095E-1,1.009905052E1,2.170950174E0
3.705091896E0,2.370000184E-1,9.478950500E0,1.801950097E0
3.707598894E0,1.770000011E-1,8.935050011E0,1.474050045E0
3.710106586E0,1.339500099E-1,8.796000481E0,1.336050034E0
3.712613357E0,5.700000376E-2,9.117000580E0,1.482000113E0
3.715119280E0,-2.805000171E-2,9.694050789E0,1.804950118E0
3.717626278E0,-1.140000075E-1,1.014900017E1,1.945950150E0
3.720133971E0,-1.960500032E-1,1.021095085E1,1.912950039E0
3.722640742E0,-2.290500104E-1,9.876000404E0,1.762050033E0
3.725146670E0,-2.359500080E-1,9.382950783E0,1.642050028E0
3.727653668E0,-2.029500157E-1,9.088050842E0,1.644000053E0
3.730161346E0,-7.605000585E-2,9.160050392E0,1.789950132E0
3.732668118E0,8.805000782E-2,9.613050461E0,2.068050146E0
3.735174031E0,1.720500141E-1,1.015605068E1,2.391000032E0
3.737681029E0,2.340000123E-1,1.039305019E1,2.479950190E0
3.740188721E0,2.370000184E-1,1.018005085E1,2.272050142E0
3.742695463E0,1.870500147E-1,9.615000725E0,1.884000063E0
3.745201617E0,1.290000081E-1,9.069000244E0,1.551000118E0
3.747708384E0,8.595000207E-2,8.908950806E0,1.407000065E0
3.750216077E0,1.695000008E-2,9.133950233E0,1.470000029E0
3.752722848E0,-2.295000106E-2,9.649050713E0,1.672950029E0
3.755229002E0,-9.495000541E-2,1.009200001E1,1.849950075E0
3.757735769E0,-1.789500117E-1,1.021905041E1,1.912950039E0
3.760243461E0,-2.790000141E-1,9.958050728E0,1.780950069E0
3.762750232E0,-2.959500253E-1,9.454950333E0,1.647000074E0
3.765256386E0,-2.869500220E-1,9.067049980E0,1.606050134E0
3.767763154E0,-1.720500141E-1,9.081000328E0,1.762050033E0
3.770270846E0,-3.000000119E-2,9.505050659E0,2.038950205E0
3.772777607E0,1.050000042E-1,1.004595089E1,2.308050156E0
3.775283761E0,2.220000178E-1,1.034505081E1,2.401050091E0
3.777790523E0,2.899500132E-1,1.022805023E1,2.233050108E0
3.780298215E0,2.800500095E-1,9.688950539E0,1.920000076E0
3.782805064E0,2.269500047E-1,9.157950401E0,1.549050093E0
3.785311141E0,2.029500157E-1,8.880000114E0,1.336050034E0
3.787817985E0,1.240500063E-1,9.019050598E0,1.399950027E0
3.790325600E0,4.500000179E-2,9.498000145E0,1.647000074E0
3.792832448E0,-5.700000376E-2,9.967050552E0,1.845000029E0
3.795338525E0,-1.810500026E-1,1.018305016E1,1.903050065E0
3.797845369E0,-2.980500162E-1,1.002705002E1,1.852950096E0
3.800352985E0,-3.610500097E-1,9.577050209E0,1.801950097E0
3.802859833E0,-2.869500220E-1,9.166950226E0,1.719000101E0
3.805365901E0,-1.789500117E-1,9.025950432E0,1.707000136E0
3.807872745E0,-2.805000171E-2,9.342000008E0,1.941000104E0
3.810380360E0,1.219500080E-1,9.912000656E0,2.272050142E0
3.812887194E0,2.250000089E-1,1.034805012E1,2.461050034E0
3.815393270E0,2.680500150E-1,1.032405090E1,2.370000124E0
3.817900110E0,2.490000129E-1,9.871050835E0,2.026950121E0
3.820407725E0,1.669500023E-1,9.246000290E0,1.672950029E0
3.822914588E0,1.219500080E-1,8.884950638E0,1.387950063E0
3.825420665E0,4.500000179E-2,8.973000526E0,1.366950035E0
3.827927509E0,-3.299999982E-2,9.473999977E0,1.591950059E0
3.830435202E0,-1.120500043E-1,9.984000206E0,1.855050087E0
3.832941973E0,-1.720500141E-1,1.023795033E1,1.944000125E0
3.835448127E0,-2.310000062E-1,1.007205009E1,1.824000120E0
3.837954894E0,-2.719500065E-1,9.670050621E0,1.708950043E0
3.840462586E0,-2.389500141E-1,9.238950729E0,1.660950065E0
3.842969357E0,-1.399500072E-1,9.093000412E0,1.711050034E0
3.845475520E0,-1.395000052E-2,9.337050438E0,1.920000076E0
3.847982288E0,1.120500043E-1,9.840000153E0,2.213999987E0
3.850489980E0,2.029500157E-1,1.025205040E1,2.374950171E0
3.852996751E0,2.509500086E-1,1.029000092E1,2.310000181E0
3.855502905E0,2.340000123E-1,9.816000938E0,1.987050056E0
3.858009658E0,1.890000105E-1,9.220050812E0,1.647000074E0
3.860517351E0,1.390500069E-1,8.884950638E0,1.446000099E0
3.863024112E0,8.400000632E-2,8.947050095E0,1.411950111E0
3.865530266E0,1.395000052E-2,9.361050606E0,1.587000132E0
3.868037033E0,-4.905000329E-2,9.852000237E0,1.795050144E0
3.870544725E0,-1.570500135E-1,1.016595078E1,1.905000091E0
3.873051727E0,-2.530499995E-1,1.012995052E1,1.867050052E0
3.875557650E0,-3.130500019E-1,9.711000443E0,1.743000031E0
3.878064417E0,-2.980500162E-1,9.187050819E0,1.620000124E0
3.880572110E0,-1.980000138E-1,8.940000534E0,1.660950065E0
3.883079112E0,-6.900000572E-2,9.190950394E0,1.924950123E0
3.885585011E0,1.050000042E-1,9.814050674E0,2.281050205E0
3.888091778E0,2.460000068E-1,1.040505028E1,2.524950027E0
3.890599489E0,3.060000241E-1,1.048695087E1,2.487000227E0
3.893106491E0,3.280500174E-1,1.001295090E1,2.142000198E0
3.895612430E0,2.749500275E-1,9.358950615E0,1.731000066E0
3.898119197E0,1.890000105E-1,8.941950798E0,1.417050123E0
3.900626889E0,1.290000081E-1,8.940000534E0,1.318950057E0
3.903133920E0,2.895000204E-2,9.357000351E0,1.510050058E0
3.905639843E0,-6.405000389E-2,9.895050049E0,1.764000058E0
3.908146841E0,-1.519500017E-1,1.018995094E1,1.888950109E0
3.910654303E0,-2.580000162E-1,1.015395069E1,1.836000085E0
3.913161305E0,-3.319500089E-1,9.775950432E0,1.738050103E0
3.915667228E0,-3.439500034E-1,9.298950195E0,1.648950100E0
3.918174226E0,-2.479500175E-1,9.043050766E0,1.659000039E0
3.920681687E0,-1.000500023E-1,9.163050652E0,1.816950083E0
3.923188689E0,4.095000029E-2,9.675000191E0,2.140050173E0
3.925694612E0,1.840500087E-1,1.021095085E1,2.374950171E0
3.928201629E0,2.659500241E-1,1.036200047E1,2.344050169E0
3.930709322E0,2.610000074E-1,1.006005001E1,2.106000185E0
3.933216093E0,1.890000105E-1,9.457050323E0,1.764000058E0
3.935722247E0,1.360500008E-1,8.914050102E0,1.431000113E0
3.938229014E0,9.300000221E-2,8.832000732E0,1.312050104E0
3.940736706E0,4.800000042E-2,9.141000748E0,1.455000043E0
3.943243435E0,-2.100000158E-2,9.706050873E0,1.747050047E0
3.945749358E0,-9.705000371E-2,1.015395069E1,1.951050043E0
3.948256356E0,-1.639500111E-1,1.020405006E1,1.945950150E0
3.950764048E0,-2.220000178E-1,9.879000664E0,1.837950110E0
3.953270819E0,-2.310000062E-1,9.385050774E0,1.764000058E0
3.955776742E0,-1.789500117E-1,9.097949982E0,1.692000031E0
3.958283740E0,-6.405000389E-2,9.190950394E0,1.845000029E0
3.960791433E0,8.805000782E-2,9.634050369E0,2.095050097E0
3.963298281E0,2.130000144E-1,1.016295052E1,2.338950157E0
3.965804127E0,2.610000074E-1,1.039995003E1,2.425050020E0
3.968311125E0,2.580000162E-1,1.015905094E1,2.238000154E0
3.970818817E0,2.299500108E-1,9.595950127E0,1.848000050E0
3.973325660E0,1.650000066E-1,9.103050232E0,1.515000105E0
3.975831737E0,9.795000404E-2,8.941950798E0,1.363950014E0
3.978338524E0,4.305000231E-2,9.175050735E0,1.435950041E0
3.980846216E0,-1.095000096E-2,9.673050880E0,1.678050041E0
3.983353078E0,-1.309500039E-1,1.008900070E1,1.848000050E0
3.985858924E0,-2.269500047E-1,1.017495060E1,1.869000077E0
3.988365999E0,-3.199500144E-1,9.912000656E0,1.765950084E0
3.990873615E0,-3.319500089E-1,9.418950081E0,1.675950050E0
3.993380386E0,-2.980500162E-1,9.040950775E0,1.630050063E0
3.995886540E0,-1.810500026E-1,9.057000160E0,1.792950034E0
3.998393384E0,-3.795000166E-2,9.499950409E0,2.086950064E0
4.000900999E0,1.170000061E-1,1.008705044E1,2.344050169E0
4.003407847E0,2.200500071E-1,1.036200047E1,2.371950150E0
4.005913915E0,2.610000074E-1,1.015395069E1,2.193000078E0
4.008420759E0,2.560500205E-1,9.643950462E0,1.855050087E0
4.010928375E0,2.080500126E-1,9.121950150E0,1.531950116E0
4.013435223E0,1.890000105E-1,8.904000282E0,1.371000051E0
4.015941300E0,1.390500069E-1,9.076050758E0,1.426050067E0
4.018448163E0,6.405000389E-2,9.523950577E0,1.687050104E0
4.020955855E0,-5.400000140E-2,1.000995064E1,1.909950137E0
4.023462622E0,-1.960500032E-1,1.021605015E1,1.933950067E0
4.025968699E0,-2.890500128E-1,1.002000046E1,1.849950075E0
4.028475543E0,-3.100500107E-1,9.565050125E0,1.750050068E0
4.030983235E0,-2.719500065E-1,9.103050232E0,1.660950065E0
4.033490006E0,-1.549500078E-1,9.025950432E0,1.719000101E0
4.035996083E0,3.105000220E-2,9.385050774E0,1.984050035E0
4.038502927E0,1.960500032E-1,9.996000290E0,2.317050219E0
4.041010620E0,2.779500186E-1,1.040805054E1,2.470050097E0
4.043517391E0,2.920500040E-1,1.032405090E1,2.341050148E0
4.046023459E0,2.389500141E-1,9.784950256E0,1.993950129E0
4.048530303E0,1.650000066E-1,9.187050819E0,1.603950024E0
4.051037995E0,7.200000435E-2,8.871000290E0,1.393050075E0
4.053544747E0,2.895000204E-2,9.016950607E0,1.398000121E0
4.056050824E0,-6.105000153E-2,9.502950668E0,1.608000040E0
4.058557668E0,-1.399500072E-1,1.001295090E1,1.861950040E0
4.061065360E0,-1.740000099E-1,1.024005032E1,1.908000112E0
4.063572131E0,-2.509500086E-1,1.002195072E1,1.828950047E0
4.066078290E0,-3.030000031E-1,9.598050117E0,1.740000129E0
4.068585057E0,-2.700000107E-1,9.234000206E0,1.696950078E0
4.071092750E0,-1.759500057E-1,9.124050140E0,1.759050131E0
4.073599521E0,-2.295000106E-2,9.391950607E0,1.951050043E0
4.076105675E0,1.240500063E-1,9.835050583E0,2.205000162E0
4.078612442E0,2.490000129E-1,1.024995041E1,2.362950087E0
4.081120134E0,2.629500031E-1,1.024695015E1,2.281050205E0
4.083626906E0,2.389500141E-1,9.835050583E0,1.968000054E0
4.086133059E0,2.149500102E-1,9.304050446E0,1.630050063E0
4.088639803E0,1.840500087E-1,8.941950798E0,1.390950084E0
4.091147495E0,1.270500124E-1,8.952000618E0,1.371000051E0
4.093654280E0,6.000000238E-2,9.328050613E0,1.527000070E0
4.096160434E0,-1.395000052E-2,9.795000076E0,1.759050131E0
4.098667201E0,-1.480500102E-1,1.013700008E1,1.912950039E0
4.101175139E0,-2.310000062E-1,1.008195019E1,1.896000147E0
4.103681911E0,-3.199500144E-1,9.675000191E0,1.807050109E0
4.106187834E0,-2.959500253E-1,9.190950394E0,1.695000052E0
4.108694610E0,-2.310000062E-1,8.977950096E0,1.675950050E0
4.111202302E0,-9.300000221E-2,9.234000206E0,1.929000139E0
4.113709304E0,4.800000042E-2,9.811050415E0,2.287950039E0
4.116215227E0,1.770000011E-1,1.030905056E1,2.485050201E0
4.118721995E0,2.700000107E-1,1.036005020E1,2.401050091E0
4.121229687E0,2.970000207E-1,9.972000122E0,2.089950085E0
4.123736689E0,2.509500086E-1,9.448050499E0,1.726050138E0
4.126242612E0,2.080500126E-1,9.025950432E0,1.482000113E0
4.128749379E0,1.219500080E-1,9.004950523E0,1.386000037E0
4.131257071E0,3.105000220E-2,9.346950531E0,1.561050057E0
4.133764083E0,-7.095000148E-2,9.826050758E0,1.828950047E0
4.136270007E0,-1.549500078E-1,1.016805077E1,1.936050057E0
4.138777019E0,-2.770500183E-1,1.020195007E1,1.893000126E0
4.141284711E0,-3.270000219E-1,9.828000069E0,1.789950132E0
4.143791449E0,-3.079500198E-1,9.333000183E0,1.668000102E0
4.146297603E0,-1.960500032E-1,9.007050514E0,1.636950135E0
4.148804360E0,-5.400000140E-2,9.133950233E0,1.822050095E0
4.151312053E0,1.150500029E-1,9.670050621E0,2.137950182E0
4.153818819E0,2.340000123E-1,1.025400066E1,2.353049994E0
4.156324742E0,2.989500165E-1,1.042905045E1,2.353049994E0
4.158831740E0,2.580000162E-1,1.006800079E1,2.074949980E0
4.161339432E0,1.870500147E-1,9.373050690E0,1.723050117E0
4.163846203E0,1.390500069E-1,8.847000122E0,1.414950013E0
4.166352357E0,7.605000585E-2,8.775000572E0,1.321050048E0
4.168859124E0,-2.100000158E-2,9.124050140E0,1.507950068E0
4.171366817E0,-7.605000585E-2,9.724950790E0,1.816950083E0
4.173873588E0,-1.500000060E-1,1.019505024E1,1.972050071E0
4.176379742E0,-2.410500050E-1,1.020900059E1,1.915050149E0
4.178886529E0,-2.719500065E-1,9.844950676E0,1.792950034E0
4.181394221E0,-2.749500275E-1,9.321000099E0,1.678050041E0
4.183901065E0,-2.190000117E-1,9.032999992E0,1.672950029E0
4.186407142E0,-5.400000140E-2,9.157950401E0,1.837950110E0
4.188913924E0,1.000500023E-1,9.670050621E0,2.116050005E0
4.191421616E0,2.299500108E-1,1.022295094E1,2.398950100E0
4.193928464E0,2.989500165E-1,1.041000080E1,2.451000214E0
4.196434541E0,2.970000207E-1,1.012500095E1,2.254950047E0
4.198941308E0,2.269500047E-1,9.535950661E0,1.879050136E0
4.201449001E0,1.789500117E-1,9.043050766E0,1.534050107E0
4.203955849E0,9.600000083E-2,8.952000618E0,1.407000065E0
4.206461926E0,6.000000238E-2,9.211050034E0,1.486050129E0
4.208968693E0,-9.000000544E-3,9.720000267E0,1.714050055E0
4.211476385E0,-1.260000020E-1,1.011300087E1,1.879050136E0
4.213983253E0,-2.029500157E-1,1.024005032E1,1.881000042E0
4.216489329E0,-2.770500183E-1,9.900000572E0,1.780950069E0
4.218996092E0,-2.869500220E-1,9.403950691E0,1.672950029E0
4.221503784E0,-2.359500080E-1,9.021000862E0,1.603950024E0
4.224010618E0,-1.189500093E-1,9.076050758E0,1.755000114E0
4.226516695E0,2.400000021E-2,9.586050034E0,2.092050076E0
4.229023519E0,1.459500045E-1,1.014900017E1,2.358000040E0
4.231531135E0,2.269500047E-1,1.038405037E1,2.394000053E0
4.234037983E0,2.299500108E-1,1.012500095E1,2.173950195E0
4.236544060E0,2.059500068E-1,9.571950912E0,1.807050109E0
4.239050948E0,1.960500032E-1,9.048000336E0,1.465050101E0
4.241558563E0,1.429500133E-1,8.893950462E0,1.297050118E0
4.244065411E0,6.705000252E-2,9.088050842E0,1.438050032E0
4.246571488E0,1.950000064E-3,9.519000053E0,1.720950127E0
4.249078333E0,-9.000000358E-2,9.984000206E0,1.927050114E0
4.251586025E0,-1.909500062E-1,1.017300034E1,1.965000153E0
4.254092796E0,-2.790000141E-1,9.991050720E0,1.884000063E0
4.256598873E0,-3.100500107E-1,9.538950920E0,1.776000142E0
4.259105717E0,-2.770500183E-1,9.103050232E0,1.690050125E0
4.261613409E0,-1.500000060E-1,9.043050766E0,1.732950091E0
4.264120161E0,4.950000439E-3,9.466950417E0,1.996050119E0
4.266626238E0,1.870500147E-1,1.005105019E1,2.329050064E0
4.269133082E0,2.659500241E-1,1.039800072E1,2.446050167E0
4.271640774E0,3.280500174E-1,1.027800083E1,2.299950123E0
4.274147560E0,2.730000019E-1,9.772950172E0,1.945950150E0
4.276653699E0,2.080500126E-1,9.175050735E0,1.608000040E0
4.279160466E0,1.219500080E-1,8.884950638E0,1.431000113E0
4.281668159E0,2.100000158E-2,9.052050591E0,1.429050088E0
4.284174930E0,-5.205000192E-2,9.559950829E0,1.659000039E0
4.286681007E0,-1.240500063E-1,1.007205009E1,1.888950109E0
4.289187851E0,-1.960500032E-1,1.024695015E1,1.903050065E0
4.291695543E0,-2.509500086E-1,1.004100037E1,1.786050081E0
4.294202315E0,-2.749500275E-1,9.562050819E0,1.680000067E0
4.296708392E0,-2.430000156E-1,9.189000130E0,1.648950100E0
4.299215236E0,-1.620000005E-1,9.105000496E0,1.735050082E0
4.301722914E0,-6.000000052E-3,9.406949997E0,1.999050140E0
4.304229685E0,1.219500080E-1,9.925950050E0,2.242950201E0
4.306735839E0,1.819500029E-1,1.029000092E1,2.383949995E0
4.309242842E0,2.080500126E-1,1.021905041E1,2.253000021E0
4.311750304E0,1.870500147E-1,9.754050255E0,1.980000138E0
4.314257306E0,1.699500084E-1,9.225000381E0,1.635000110E0
4.316763238E0,1.309500039E-1,8.905950546E0,1.417050123E0
4.319270236E0,1.170000061E-1,8.992950439E0,1.386000037E0
4.321777697E0,5.205000192E-2,9.381000519E0,1.563000083E0
4.324284718E0,-2.100000158E-2,9.850050926E0,1.798050046E0
4.326790641E0,-1.279500127E-1,1.015395069E1,1.917000055E0
4.329297409E0,-2.239500135E-1,1.008195019E1,1.885950089E0
4.331805101E0,-2.839500010E-1,9.658050537E0,1.755000114E0
4.334312103E0,-2.509500086E-1,9.153000832E0,1.635000110E0
4.336818026E0,-1.789500117E-1,8.968950272E0,1.678050041E0
4.339324793E0,-5.895000324E-2,9.285000801E0,1.948050141E0
4.341832716E0,9.105000645E-2,9.907050133E0,2.326950073E0
4.344339488E0,2.220000178E-1,1.039995003E1,2.485050201E0
4.346845411E0,2.700000107E-1,1.039305019E1,2.403000116E0
4.349352405E0,2.869500220E-1,9.916950226E0,2.044049978E0
4.351860097E0,2.509500086E-1,9.316050529E0,1.656000137E0
4.354366872E0,1.699500084E-1,8.977950096E0,1.390950084E0
4.356872795E0,9.600000083E-2,9.045000076E0,1.362000108E0
4.359379793E0,-6.000000052E-3,9.414000511E0,1.563000083E0
4.361887472E0,-9.705000371E-2,9.879000664E0,1.825950146E0
4.364394243E0,-2.050500065E-1,1.015095043E1,1.908000112E0
4.366900180E0,-2.820000052E-1,1.006500053E1,1.864950061E0
4.369407178E0,-3.439500034E-1,9.715950012E0,1.776000142E0
4.371914870E0,-3.420000076E-1,9.298950195E0,1.696950078E0
4.374421642E0,-2.389500141E-1,9.064050674E0,1.702050090E0
4.376927795E0,-9.300000221E-2,9.202950478E0,1.876950145E0
4.379434563E0,8.595000207E-2,9.700950623E0,2.180999994E0
4.381942255E0,2.389500141E-1,1.020900059E1,2.355000019E0
4.384449026E0,3.109500110E-1,1.034805012E1,2.358000040E0
4.386955180E0,2.920500040E-1,1.003200054E1,2.056050062E0
4.389461947E0,2.340000123E-1,9.409049988E0,1.692000031E0
4.391969640E0,1.909500062E-1,8.928000450E0,1.419000030E0
4.394476411E0,1.270500124E-1,8.815050125E0,1.300050020E0
4.396982565E0,5.700000376E-2,9.163050652E0,1.470000029E0
4.399489318E0,-3.495000303E-2,9.744000435E0,1.789950132E0
4.401997010E0,-1.170000061E-1,1.016295052E1,1.956000090E0
4.404503858E0,-1.980000138E-1,1.016595078E1,1.933950067E0
4.407009930E0,-2.359500080E-1,9.795000076E0,1.813950062E0
4.409516698E0,-2.820000052E-1,9.297000885E0,1.711050034E0
4.412024356E0,-2.170500159E-1,9.028950691E0,1.696950078E0
4.414531204E0,-8.805000782E-2,9.175050735E0,1.876950145E0
4.417037277E0,6.000000238E-2,9.685050011E0,2.180999994E0
4.419544044E0,1.789500117E-1,1.022100067E1,2.407950163E0
4.422051736E0,2.149500102E-1,1.039800072E1,2.401050091E0
4.424558585E0,2.389500141E-1,1.009200001E1,2.180999994E0
4.427064662E0,2.179500163E-1,9.490950584E0,1.813950062E0
4.429571429E0,1.530000120E-1,9.032999992E0,1.515000105E0
4.432079121E0,8.400000632E-2,8.929950714E0,1.398000121E0
4.434585969E0,2.400000021E-2,9.225000381E0,1.498050094E0
4.437092046E0,-3.795000166E-2,9.739950180E0,1.755000114E0
4.439598813E0,-1.399500072E-1,1.014705086E1,1.893000126E0
4.442106486E0,-2.359500080E-1,1.024005032E1,1.908000112E0
4.444613334E0,-2.939999998E-1,9.925950050E0,1.831050038E0
4.447119411E0,-3.060000241E-1,9.381000519E0,1.684950113E0
4.449626255E0,-2.410500050E-1,8.973000526E0,1.620000124E0
4.452133870E0,-1.170000061E-1,9.076050758E0,1.789950132E0
4.454640734E0,4.500000179E-2,9.607950211E0,2.104050159E0
4.457146810E0,1.770000011E-1,1.022595024E1,2.347950220E0
4.459653655E0,2.629500031E-1,1.043400097E1,2.374950171E0
4.462161270E0,2.970000207E-1,1.010595036E1,2.121000051E0
4.464668118E0,2.509500086E-1,9.483000755E0,1.756950140E0
4.467174195E0,2.130000144E-1,9.009000778E0,1.486050129E0
4.469681039E0,1.339500099E-1,8.872950554E0,1.324050069E0
4.472188655E0,7.395000011E-2,9.129000664E0,1.443000078E0
4.474695503E0,-1.395000052E-2,9.598050117E0,1.735050082E0
4.477201580E0,-1.360500008E-1,9.973950386E0,1.905000091E0
4.479708424E0,-2.430000156E-1,1.011795044E1,1.905000091E0
4.482216116E0,-3.250500262E-1,9.919050217E0,1.834050059E0
4.484723118E0,-3.820500076E-1,9.462000847E0,1.732950091E0
4.487229041E0,-2.980500162E-1,9.100049973E0,1.636950135E0
4.489735809E0,-1.549500078E-1,9.061950684E0,1.750050068E0
4.492243501E0,2.895000204E-2,9.457050323E0,2.005950212E0
4.494750493E0,1.939500123E-1,1.007205009E1,2.335950136E0
4.497256416E0,2.970000207E-1,1.043205070E1,2.475000143E0
4.499763183E0,3.210000098E-1,1.027395058E1,2.317050219E0
4.502270847E0,2.700000107E-1,9.712950706E0,1.960050106E0
4.504777618E0,2.029500157E-1,9.129000664E0,1.623000026E0
4.507283758E0,1.050000042E-1,8.860950470E0,1.387950063E0
4.509790525E0,4.305000231E-2,9.079050064E0,1.419000030E0
4.512298183E0,-6.599999964E-2,9.582000732E0,1.678050041E0
4.514805185E0,-1.330500096E-1,1.010400009E1,1.932000041E0
4.517311113E0,-2.070000172E-1,1.029000092E1,1.953000069E0
4.519817880E0,-2.509500086E-1,1.004100037E1,1.825950146E0
4.522325573E0,-2.770500183E-1,9.559950829E0,1.692000031E0
4.524832575E0,-2.220000178E-1,9.172050476E0,1.635000110E0
4.527338498E0,-1.000500023E-1,9.097949982E0,1.750050068E0
4.529845496E0,4.095000029E-2,9.436050415E0,1.992000103E0
4.532352957E0,1.480500102E-1,9.979050636E0,2.275950193E0
4.534859959E0,2.250000089E-1,1.037400055E1,2.365050077E0
4.537365883E0,2.440500110E-1,1.025400066E1,2.269050121E0
4.539872881E0,2.110500038E-1,9.712950706E0,1.893000126E0
4.542380342E0,1.429500133E-1,9.139050484E0,1.510050058E0
4.544887320E0,1.219500080E-1,8.844000816E0,1.338000059E0
4.547393243E0,8.400000632E-2,8.962050438E0,1.407000065E0
4.549900241E0,2.100000158E-2,9.412050247E0,1.596000075E0
4.552407722E0,-6.105000153E-2,9.900000572E0,1.812000036E0
4.554914806E0,-1.480500102E-1,1.016805077E1,1.912950039E0
4.557421917E0,-2.340000123E-1,1.000500011E1,1.893000126E0
4.559927647E0,-2.869500220E-1,9.558000565E0,1.792950034E0
4.562435337E0,-3.030000031E-1,9.112050056E0,1.702050090E0
4.564942108E0,-1.999500096E-1,8.995050430E0,1.747050047E0
4.567448031E0,-4.695000127E-2,9.354000092E0,1.984050035E0
4.569955029E0,9.300000221E-2,9.991050720E0,2.317050219E0
4.572462741E0,2.250000089E-1,1.039800072E1,2.451000214E0
4.574969512E0,2.939999998E-1,1.035300064E1,2.334000111E0
4.577475459E0,3.040500283E-1,9.835050583E0,1.968000054E0
4.579982462E0,2.659500241E-1,9.262950897E0,1.630050063E0
4.582490154E0,2.059500068E-1,8.962050438E0,1.395000100E0
4.584996926E0,1.219500080E-1,9.043050766E0,1.390950084E0
4.587502849E0,1.695000008E-2,9.463950157E0,1.644000053E0
4.590009847E0,-1.090500057E-1,9.955050468E0,1.900950074E0
4.592517539E0,-2.119500041E-1,1.022805023E1,1.951050043E0
4.595024310E0,-3.100500107E-1,1.012800026E1,1.876950145E0
4.597530464E0,-3.180000186E-1,9.682050705E0,1.777950048E0
4.600037231E0,-3.010500073E-1,9.220050812E0,1.672950029E0
4.602544924E0,-1.690500081E-1,9.040950775E0,1.654050112E0
4.605051699E0,-4.905000329E-2,9.277950287E0,1.837950110E0
4.607557853E0,1.290000081E-1,9.802050591E0,2.176050186E0
4.610064620E0,2.389500141E-1,1.028595066E1,2.359950066E0
4.612572317E0,2.560500205E-1,1.034505081E1,2.286000013E0
4.615079089E0,2.130000144E-1,9.900000572E0,1.981950045E0
4.617585242E0,1.819500029E-1,9.246000290E0,1.639950037E0
4.620092010E0,9.600000083E-2,8.806050301E0,1.381050110E0
4.622599697E0,5.700000376E-2,8.818050385E0,1.354950070E0
4.625106545E0,1.950000064E-3,9.268050194E0,1.587000132E0
4.627612622E0,-8.505000174E-2,9.876000404E0,1.896000147E0
4.630119466E0,-1.450500041E-1,1.024005032E1,1.996050119E0
4.632627082E0,-1.960500032E-1,1.013505077E1,1.903050065E0
4.635133930E0,-2.479500175E-1,9.694050789E0,1.747050047E0
4.637640007E0,-2.530499995E-1,9.226950645E0,1.632000089E0
4.640146851E0,-1.759500057E-1,9.067049980E0,1.666050076E0
4.642654466E0,-3.299999982E-2,9.286950111E0,1.893000126E0
4.645161314E0,1.339500099E-1,9.820950508E0,2.164050102E0
4.647667391E0,2.340000123E-1,1.030005074E1,2.386950016E0
4.650174249E0,2.869500220E-1,1.040295029E1,2.379000187E0
4.652681865E0,2.700000107E-1,9.985950470E0,2.109000206E0
4.655188733E0,2.130000144E-1,9.345000267E0,1.740000129E0
4.657694810E0,1.429500133E-1,8.917950630E0,1.501050115E0
4.660201668E0,8.100000024E-2,8.917950630E0,1.419000030E0
4.662709360E0,2.100000158E-2,9.304050446E0,1.576950073E0
4.665216138E0,-5.205000192E-2,9.868950844E0,1.812000036E0
4.667722215E0,-1.740000099E-1,1.024500084E1,1.896000147E0
4.670229059E0,-2.770500183E-1,1.017495060E1,1.852950096E0
4.672736751E0,-3.270000219E-1,9.747000694E0,1.747050047E0
4.675243522E0,-3.390000165E-1,9.193950653E0,1.620000124E0
4.677749676E0,-2.599500120E-1,8.947050095E0,1.642050028E0
4.680256443E0,-9.705000371E-2,9.234000206E0,1.872000098E0
4.682764136E0,6.405000389E-2,9.844950676E0,2.242950201E0
4.685270907E0,2.029500157E-1,1.039095020E1,2.449050188E0
4.687777061E0,2.680500150E-1,1.042905045E1,2.359950066E0
4.690283828E0,3.090000153E-1,9.969000816E0,2.077950001E0
4.692791557E0,2.659500241E-1,9.306000710E0,1.684950113E0
4.695298329E0,2.149500102E-1,8.848950386E0,1.398000121E0
4.697804487E0,1.549500078E-1,8.836950302E0,1.327950120E0
4.700311255E0,8.595000207E-2,9.249000549E0,1.558050036E0
4.702818947E0,-9.000000544E-3,9.782999992E0,1.840950131E0
4.705325958E0,-1.309500039E-1,1.019895077E1,1.968000054E0
4.707831881E0,-2.340000123E-1,1.018305016E1,1.917000055E0
4.710338648E0,-3.079500198E-1,9.742050171E0,1.813950062E0
4.712846341E0,-3.150000274E-1,9.208050728E0,1.668000102E0
4.715353343E0,-2.290500104E-1,8.940000534E0,1.627950072E0
4.717859266E0,-7.304999977E-2,9.187050819E0,1.834050059E0
4.720366033E0,8.595000207E-2,9.772950172E0,2.133000135E0
4.722873725E0,2.440500110E-1,1.030905056E1,2.391000032E0
4.725380727E0,3.109500110E-1,1.040505028E1,2.374950171E0
4.727886650E0,2.970000207E-1,1.002195072E1,2.113950014E0
4.730393390E0,2.149500102E-1,9.354000092E0,1.764000058E0
4.732901082E0,1.309500039E-1,8.916000366E0,1.477050066E0
4.735408079E0,2.400000021E-2,8.875050545E0,1.390950084E0
4.737914002E0,-4.500000179E-2,9.241950035E0,1.585050106E0
4.740420991E0,-1.279500127E-1,9.847050667E0,1.849950075E0
4.742928453E0,-1.879500151E-1,1.020705032E1,1.989000082E0
4.745435441E0,-2.479500175E-1,1.022100067E1,1.885950089E0
4.747941364E0,-3.079500198E-1,9.856950760E0,1.744950056E0
4.750448362E0,-2.670000196E-1,9.388050079E0,1.624950051E0
4.752955823E0,-1.600500047E-1,9.105000496E0,1.615950108E0
4.755462825E0,-1.800000109E-2,9.196050644E0,1.804950118E0
4.757968748E0,1.290000081E-1,9.639000893E0,2.071050167E0
4.760475746E0,2.149500102E-1,1.016295052E1,2.329050064E0
4.762983439E0,2.659500241E-1,1.039095020E1,2.395950079E0
4.765490210E0,2.560500205E-1,1.010400009E1,2.233050108E0
4.767996364E0,1.939500123E-1,9.483000755E0,1.849950075E0
4.770503121E0,1.549500078E-1,8.964000702E0,1.522050023E0
4.773010813E0,1.170000061E-1,8.803050041E0,1.369050026E0
4.775517579E0,5.205000192E-2,9.109950066E0,1.501050115E0
4.778023503E0,0.000000000E0,9.691950798E0,1.735050082E0
4.780530501E0,-1.000500023E-1,1.014405060E1,1.857000113E0
4.783038203E0,-1.909500062E-1,1.021905041E1,1.834050059E0
4.785544974E0,-2.650500238E-1,9.864000320E0,1.735050082E0
4.788051113E0,-2.770500183E-1,9.309000015E0,1.620000124E0
4.790557885E0,-2.220000178E-1,8.965950012E0,1.585050106E0
4.793065578E0,-1.170000061E-1,9.105000496E0,1.777950048E0
4.795572426E0,1.950000064E-3,9.603000641E0,2.194950104E0
4.798078272E0,1.270500124E-1,1.021395016E1,2.509050131E0
4.800585270E0,2.029500157E-1,1.045095062E1,2.524950027E0
4.803092962E0,2.509500086E-1,1.015395069E1,2.260050058E0
4.805599810E0,2.340000123E-1,9.546000481E0,1.848000050E0
4.808105887E0,1.750500053E-1,9.025950432E0,1.515000105E0
4.810612654E0,1.290000081E-1,8.899050713E0,1.359000087E0
4.813120347E0,5.700000376E-2,9.178950310E0,1.441050053E0
4.815627195E0,-3.795000166E-2,9.691950798E0,1.692000031E0
4.818133258E0,-1.120500043E-1,1.012800026E1,1.885950089E0
4.820640102E0,-2.149500102E-1,1.022100067E1,1.897950053E0
4.823147707E0,-3.180000186E-1,9.991050720E0,1.804950118E0
4.825654556E0,-3.250500262E-1,9.505050659E0,1.720950127E0
4.828160633E0,-2.580000162E-1,9.103050232E0,1.647000074E0
4.830667477E0,-1.330500096E-1,9.061950684E0,1.774050117E0
4.833175092E0,4.095000029E-2,9.462000847E0,2.061000109E0
4.835681934E0,1.870500147E-1,1.008000088E1,2.293050051E0
4.838188011E0,2.800500095E-1,1.042005062E1,2.406000137E0
4.840694855E0,2.920500040E-1,1.022100067E1,2.221050024E0
4.843202471E0,2.610000074E-1,9.603000641E0,1.869000077E0
4.845709319E0,1.870500147E-1,9.007050514E0,1.494000077E0
4.848215396E0,1.290000081E-1,8.760000229E0,1.291950107E0
4.850722240E0,5.700000376E-2,9.001950264E0,1.351950049E0
4.853229932E0,-2.805000171E-2,9.574050903E0,1.684950113E0
4.855736704E0,-9.705000371E-2,1.006500053E1,1.912950039E0
4.858242780E0,-1.759500057E-1,1.021395016E1,1.944000125E0
4.860749620E0,-2.389500141E-1,9.958050728E0,1.843050122E0
4.863257312E0,-2.719500065E-1,9.463950157E0,1.704000115E0
4.865764079E0,-2.479500175E-1,9.115050316E0,1.692000031E0
4.868270156E0,-1.360500008E-1,9.088050842E0,1.771050096E0
4.870777000E0,0.000000000E0,9.463950157E0,2.032050133E0
4.873284707E0,1.240500063E-1,9.991050720E0,2.322000027E0
4.875791478E0,2.179500163E-1,1.034505081E1,2.466000080E0
4.878297555E0,2.580000162E-1,1.027800083E1,2.326950073E0
4.880804442E0,2.340000123E-1,9.782999992E0,1.977000117E0
4.883312154E0,2.010000050E-1,9.241950035E0,1.642050028E0
4.885818925E0,1.650000066E-1,8.959050179E0,1.402950048E0
4.888325002E0,8.400000632E-2,9.049950600E0,1.411950111E0
4.890831847E0,1.695000008E-2,9.490950584E0,1.587000132E0
4.893339539E0,-6.105000153E-2,9.991050720E0,1.807050109E0
4.895846310E0,-1.669500023E-1,1.026900005E1,1.900950074E0
4.898352464E0,-2.479500175E-1,1.011300087E1,1.819050074E0
4.900859231E0,-3.030000031E-1,9.634050369E0,1.711050034E0
4.903366923E0,-2.890500128E-1,9.105000496E0,1.587000132E0
4.905873695E0,-1.980000138E-1,8.950050354E0,1.678050041E0
4.908379858E0,-4.200000316E-2,9.313050270E0,1.981950045E0
4.910886856E0,1.000500023E-1,9.955050468E0,2.317050219E0
4.913394317E0,2.130000144E-1,1.040505028E1,2.437050104E0
4.915901319E0,2.509500086E-1,1.033605003E1,2.290950060E0
4.918407242E0,2.340000123E-1,9.790050507E0,1.920000076E0
4.920914023E0,1.960500032E-1,9.151050568E0,1.576950073E0
4.923421707E0,1.530000120E-1,8.851050377E0,1.330950022E0
4.925928709E0,8.400000632E-2,8.940000534E0,1.359000087E0
4.928434632E0,2.895000204E-2,9.358950615E0,1.615950108E0
4.930941399E0,-5.400000140E-2,9.895050049E0,1.869000077E0
4.933449322E0,-1.570500135E-1,1.018305016E1,1.944000125E0
4.935956093E0,-2.599500120E-1,1.009200001E1,1.881000042E0
4.938462016E0,-3.199500144E-1,9.679950714E0,1.788000107E0
4.940968784E0,-3.079500198E-1,9.178950310E0,1.702050090E0
4.943476707E0,-1.960500032E-1,8.956950188E0,1.726050138E0
4.945983478E0,-6.000000052E-3,9.225000381E0,1.917000055E0
4.948489372E0,1.630500108E-1,9.879000664E0,2.226000071E0
4.950996139E0,3.090000153E-1,1.041495037E1,2.455950022E0
4.953504067E0,3.400500119E-1,1.042905045E1,2.398950100E0
4.956010839E0,3.229500055E-1,9.916950226E0,2.041949987E0
4.958516762E0,2.340000123E-1,9.225000381E0,1.632000089E0
4.961023789E0,1.510500014E-1,8.866050720E0,1.378950119E0
4.963531481E0,5.700000376E-2,8.938050270E0,1.386000037E0
4.966038247E0,-3.495000303E-2,9.451950073E0,1.585050106E0
4.968544170E0,-1.309500039E-1,9.997950554E0,1.852950096E0
4.971051168E0,-1.960500032E-1,1.021905041E1,1.912950039E0
4.973558861E0,-2.749500275E-1,1.002900028E1,1.798050046E0
4.976065632E0,-3.220500052E-1,9.571950912E0,1.695000052E0
4.978571786E0,-2.890500128E-1,9.208050728E0,1.672950029E0
4.981078553E0,-1.759500057E-1,9.136050224E0,1.740000129E0
4.983586245E0,-5.400000140E-2,9.381000519E0,1.972050071E0
4.986093094E0,9.300000221E-2,9.852000237E0,2.209050179E0
4.988598940E0,2.029500157E-1,1.022805023E1,2.370000124E0
4.991105909E0,2.509500086E-1,1.027095032E1,2.310000181E0
4.993613601E0,2.269500047E-1,9.880950928E0,2.038950205E0
4.996120449E0,1.909500062E-1,9.349050522E0,1.695000052E0
4.998626526E0,1.699500084E-1,8.959050179E0,1.426050067E0
5.001133313E0,1.120500043E-1,8.962050438E0,1.378950119E0
5.003641006E0,7.905000448E-2,9.309000015E0,1.506000042E0
5.006147868E0,-6.000000052E-3,9.796950340E0,1.780950069E0
5.008653945E0,-9.000000358E-2,1.013895035E1,1.908000112E0
5.011160712E0,-1.999500096E-1,1.011600018E1,1.908000112E0
5.013668404E0,-2.509500086E-1,9.712950706E0,1.795050144E0
5.016175252E0,-2.719500065E-1,9.217950821E0,1.672950029E0
5.018681329E0,-2.149500102E-1,8.983050346E0,1.678050041E0
5.021188097E0,-8.100000024E-2,9.220050812E0,1.897950053E0
5.023695789E0,6.900000572E-2,9.795000076E0,2.213999987E0
5.026202637E0,1.720500141E-1,1.029300022E1,2.454000235E0
5.028708714E0,2.539499998E-1,1.038600063E1,2.419950008E0
5.031215558E0,2.629500031E-1,9.985950470E0,2.089950085E0
5.033723184E0,2.299500108E-1,9.427950859E0,1.719000101E0
5.036230032E0,1.789500117E-1,9.019050598E0,1.417050123E0
5.038736104E0,8.400000632E-2,8.992950439E0,1.378950119E0
5.041242948E0,1.950000064E-3,9.286950111E0,1.510050058E0
5.043750563E0,-9.705000371E-2,9.744000435E0,1.735050082E0
5.046257396E0,-1.690500081E-1,1.009200001E1,1.888950109E0
5.048763473E0,-2.839500010E-1,1.017795086E1,1.876950145E0
5.051270327E0,-3.340500295E-1,9.889950752E0,1.783050060E0
5.053777943E0,-3.390000165E-1,9.403950691E0,1.704000115E0
5.056284791E0,-2.389500141E-1,9.045000076E0,1.671000123E0
5.058790868E0,-8.505000174E-2,9.133950233E0,1.801950097E0
5.061297712E0,1.030500084E-1,9.631950378E0,2.118000031E0
5.063805404E0,2.389500141E-1,1.018995094E1,2.346000195E0
5.066312176E0,3.109500110E-1,1.037400055E1,2.341050148E0
5.068818253E0,3.040500283E-1,1.007505035E1,2.146950006E0
5.071325097E0,2.460000068E-1,9.457050323E0,1.798050046E0
5.073832789E0,1.630500108E-1,8.938050270E0,1.470000029E0
5.076339781E0,1.050000042E-1,8.808000565E0,1.327950120E0
5.078845627E0,3.105000220E-2,9.117000580E0,1.474050045E0
5.081352486E0,-3.795000166E-2,9.730050087E0,1.798050046E0
5.083860179E0,-1.140000075E-1,1.016805077E1,1.944000125E0
5.086366959E0,-1.840500087E-1,1.019895077E1,1.869000077E0
5.088873036E0,-2.340000123E-1,9.847050667E0,1.740000129E0
5.091379895E0,-2.410500050E-1,9.340050697E0,1.672950029E0
5.093887587E0,-1.909500062E-1,9.032999992E0,1.639950037E0
5.096394359E0,-8.295000345E-2,9.184050560E0,1.836000085E0
5.098900435E0,6.900000572E-2,9.652950287E0,2.133000135E0
5.101407280E0,1.789500117E-1,1.018995094E1,2.398950100E0
5.103914972E0,2.490000129E-1,1.036200047E1,2.463000059E0
5.106421743E0,2.419500053E-1,1.012500095E1,2.254950047E0
5.108927897E0,2.010000050E-1,9.550050735E0,1.876950145E0
5.111434664E0,1.290000081E-1,9.073950768E0,1.558050036E0
5.113942357E0,7.395000011E-2,8.952000618E0,1.399950027E0
5.116449142E0,2.400000021E-2,9.220050812E0,1.455000043E0
5.118955296E0,-2.805000171E-2,9.676950455E0,1.660950065E0
5.121462303E0,-9.705000371E-2,1.005600071E1,1.812000036E0
5.123969764E0,-1.909500062E-1,1.016805077E1,1.869000077E0
5.126476535E0,-2.700000107E-1,9.931050301E0,1.801950097E0
5.128982661E0,-2.910000086E-1,9.442950249E0,1.654050112E0
5.131489429E0,-2.430000156E-1,9.067049980E0,1.615950108E0
5.133997140E0,-1.189500093E-1,9.093000412E0,1.774050117E0
5.136504142E0,-4.050000105E-3,9.577050209E0,2.130000114E0
5.139010065E0,1.339500099E-1,1.013505077E1,2.407950163E0
5.141517082E0,2.389500141E-1,1.038795090E1,2.425050020E0
5.144024774E0,2.970000207E-1,1.016805077E1,2.169000149E0
5.146531546E0,2.749500275E-1,9.555000305E0,1.800000072E0
5.149037469E0,2.250000089E-1,9.043050766E0,1.477050066E0
5.151544467E0,1.600500047E-1,8.868000031E0,1.306950092E0
5.154052159E0,1.219500080E-1,9.079050064E0,1.417050123E0
5.156558930E0,1.395000052E-2,9.553050041E0,1.668000102E0
5.159064853E0,-9.300000221E-2,1.000095081E1,1.905000091E0
5.161571851E0,-1.860000044E-1,1.020900059E1,1.924950123E0
5.164079554E0,-3.079500198E-1,9.985950470E0,1.834050059E0
5.166586325E0,-3.319500089E-1,9.502950668E0,1.764000058E0
5.169092479E0,-2.939999998E-1,9.064050674E0,1.672950029E0
5.171599221E0,-1.690500081E-1,9.032999992E0,1.752000093E0
5.174106913E0,0.000000000E0,9.469050407E0,2.037000179E0
5.176613669E0,1.549500078E-1,1.006305027E1,2.341050148E0
5.179119823E0,2.680500150E-1,1.043400097E1,2.485050201E0
5.181626562E0,2.730000019E-1,1.028295040E1,2.275950193E0
5.184134254E0,2.629500031E-1,9.703950882E0,1.908000112E0
5.186641025E0,1.939500123E-1,9.100049973E0,1.599000096E0
5.189147179E0,1.390500069E-1,8.832000732E0,1.411950111E0
5.191653946E0,4.305000231E-2,9.037950516E0,1.458000064E0
5.194161638E0,-3.299999982E-2,9.586050034E0,1.699050069E0
5.196668487E0,-1.120500043E-1,1.010805035E1,1.924950123E0
5.199174564E0,-1.999500096E-1,1.033800030E1,1.912950039E0
5.201681331E0,-2.550000250E-1,1.004100037E1,1.807050109E0
5.204189023E0,-2.910000086E-1,9.543000221E0,1.660950065E0
5.206695871E0,-2.100000083E-1,9.100049973E0,1.591950059E0
5.209201948E0,-1.240500063E-1,9.025950432E0,1.687050104E0
5.211708701E0,4.500000179E-2,9.433050156E0,1.968000054E0
5.214216394E0,1.309500039E-1,1.005600071E1,2.257050037E0
5.216723242E0,2.110500038E-1,1.037205029E1,2.407950163E0
5.219229324E0,2.539499998E-1,1.021095085E1,2.257050037E0
5.221736091E0,2.250000089E-1,9.658050537E0,1.951050043E0
