"Time (s)","Gyroscope x (rad/s)","Gyroscope y (rad/s)","Gyroscope z (rad/s)"
1.501247100E-2,3.849999979E-3,4.427500069E-2,7.837500423E-3
1.751950200E-2,-1.938750036E-2,2.241249941E-2,6.599999964E-3
2.002696400E-2,-3.148749843E-2,-1.306249946E-2,-6.874999963E-4
2.253373300E-2,-4.248749837E-2,-5.101250112E-2,-5.637499969E-3
2.503990500E-2,-5.472499877E-2,-5.953750014E-2,-3.162499983E-3
2.754690500E-2,-6.696250290E-2,-3.753750026E-2,5.499999970E-4
3.005436600E-2,-7.067500055E-2,-4.537499975E-3,5.362499971E-3
3.256137100E-2,-5.472499877E-2,2.598750032E-2,-1.924999990E-3
3.506729700E-2,-1.814999990E-2,3.946249932E-2,-1.044999994E-2
3.757406400E-2,3.203750029E-2,2.722499892E-2,-1.897500083E-2
4.008175600E-2,7.837499678E-2,8.937500417E-3,-2.268750034E-2
4.258875800E-2,9.666249901E-2,-2.062499989E-3,-1.539999992E-2
4.509470900E-2,7.961250097E-2,-3.299999982E-3,-1.924999990E-3
4.760147600E-2,4.056249931E-2,2.749999985E-3,1.388750039E-2
5.010916900E-2,-2.199999988E-3,8.937500417E-3,2.254999988E-2
5.261617600E-2,-3.038750030E-2,1.649999991E-3,2.488750033E-2
5.512209900E-2,-3.767500073E-2,-1.677500084E-2,2.007500082E-2
5.762886600E-2,-2.791249938E-2,-3.258749843E-2,9.074999951E-3
6.013655800E-2,-2.172499895E-2,-4.235000163E-2,2.887499984E-3
6.264356000E-2,-2.667500079E-2,-3.258749843E-2,-6.874999963E-4
6.514948300E-2,-3.643750027E-2,-9.349999949E-3,-1.924999990E-3
6.765624600E-2,-3.767500073E-2,1.622499898E-2,-1.044999994E-2
7.016393800E-2,-2.419999987E-2,3.217500076E-2,-1.787500083E-2
7.267094000E-2,2.749999985E-4,3.575000167E-2,-2.887500077E-2
7.517687700E-2,3.684999794E-2,2.969999984E-2,-3.121249937E-2
7.768364400E-2,6.379999965E-2,1.869999990E-2,-2.392499894E-2
8.019133700E-2,6.737499684E-2,5.224999972E-3,-1.044999994E-2
8.269810800E-2,4.661250114E-2,-7.012499962E-3,6.599999964E-3
8.520423800E-2,8.799999952E-3,-1.306249946E-2,2.364999987E-2
8.771100500E-2,-3.038750030E-2,-1.924999990E-2,3.355000168E-2
9.021869700E-2,-5.348749831E-2,-2.406249940E-2,3.588749841E-2
9.272546900E-2,-5.224999785E-2,-3.011249937E-2,2.488750033E-2
9.523162200E-2,-2.914999984E-2,-3.011249937E-2,1.512499992E-2
9.773839000E-2,-3.437499981E-3,-2.158750035E-2,-6.874999963E-4
1.002460820E-1,1.237499993E-2,-7.012499962E-3,-6.874999963E-3
1.027528530E-1,1.237499993E-2,8.937500417E-3,-1.539999992E-2
1.052590210E-1,8.799999952E-3,2.351249941E-2,-2.144999988E-2
1.077657880E-1,1.003750041E-2,3.822499886E-2,-2.516249940E-2
1.102734810E-1,1.484999992E-2,4.069999978E-2,-2.763750032E-2
1.127802520E-1,2.708750032E-2,2.846249938E-2,-2.268750034E-2
1.152863960E-1,3.437500075E-2,1.017499994E-2,-1.539999992E-2
1.177931630E-1,3.203750029E-2,-9.349999949E-3,-6.874999963E-4
1.203008550E-1,1.127499994E-2,-2.529999986E-2,1.636249945E-2
1.228076260E-1,-2.296249941E-2,-2.901249938E-2,2.612499893E-2
1.253137030E-1,-4.743750021E-2,-2.529999986E-2,3.231250122E-2
1.278205530E-1,-5.472499877E-2,-1.553750038E-2,2.612499893E-2
1.303282450E-1,-3.519999981E-2,-1.182499994E-2,1.636249945E-2
1.328350160E-1,-2.199999988E-3,-1.058750041E-2,2.887499984E-3
1.353411700E-1,2.461249940E-2,-8.249999955E-3,-6.874999963E-3
1.378479560E-1,3.561250120E-2,-3.299999982E-3,-1.292499993E-2
1.403556480E-1,2.832499892E-2,5.224999972E-3,-1.539999992E-2
1.428626500E-1,1.484999992E-2,2.117500082E-2,-1.416249946E-2
1.453684970E-1,1.374999993E-3,3.093750030E-2,-1.292499993E-2
1.478753740E-1,-3.437499981E-3,2.846249938E-2,-1.168750040E-2
1.503830660E-1,3.849999979E-3,1.746249944E-2,-1.168750040E-2
1.528900680E-1,1.856249943E-2,-8.249999955E-4,-6.874999963E-3
1.553959910E-1,2.337500080E-2,-1.924999990E-2,2.887499984E-3
1.579027680E-1,7.562499959E-3,-2.653750032E-2,1.154999994E-2
1.604104610E-1,-2.048750035E-2,-2.529999986E-2,2.254999988E-2
1.629174630E-1,-4.496249929E-2,-1.924999990E-2,2.488750033E-2
1.654233140E-1,-5.348749831E-2,-1.182499994E-2,2.007500082E-2
1.679301580E-1,-3.519999981E-2,-7.012499962E-3,1.031249948E-2
1.704377730E-1,-9.624999948E-4,-5.774999969E-3,-3.162499983E-3
1.729446220E-1,3.437500075E-2,2.749999985E-3,-1.044999994E-2
1.754507750E-1,4.908749834E-2,8.937500417E-3,-1.787500083E-2
1.779575570E-1,4.179999977E-2,1.251249947E-2,-1.663750038E-2
1.804652490E-1,2.213750035E-2,1.374999993E-2,-1.168750040E-2
1.829720200E-1,1.374999993E-3,1.993750036E-2,-8.112499490E-3
1.854781740E-1,-8.387500420E-3,2.117500082E-2,-1.924999990E-3
1.879849170E-1,-8.387500420E-3,1.017499994E-2,-1.924999990E-3
1.904926100E-1,3.849999979E-3,-5.774999969E-3,-6.874999963E-4
1.929993810E-1,7.562499959E-3,-1.924999990E-2,2.887499984E-3
1.955055350E-1,-4.674999975E-3,-2.282499894E-2,1.031249948E-2
1.980123120E-1,-2.419999987E-2,-2.282499894E-2,1.512499992E-2
2.005200040E-1,-4.372499883E-2,-1.306249946E-2,1.512499992E-2
2.030267760E-1,-4.372499883E-2,-2.062499989E-3,1.031249948E-2
2.055328520E-1,-2.048750035E-2,2.749999985E-3,2.887499984E-3
2.080396820E-1,1.251249947E-2,4.124999978E-4,-4.399999976E-3
2.105473740E-1,4.179999977E-2,4.124999978E-4,-9.212499484E-3
2.130541450E-1,5.403750017E-2,4.124999978E-4,-1.044999994E-2
2.155602220E-1,4.056249931E-2,1.512499992E-3,-4.399999976E-3
2.180670710E-1,1.732499897E-2,5.224999972E-3,1.787499990E-3
2.205747640E-1,-7.149999961E-3,8.937500417E-3,4.124999978E-3
2.230815350E-1,-2.172499895E-2,1.374999993E-2,-3.162499983E-3
2.255876120E-1,-1.691249944E-2,1.017499994E-2,-5.637499969E-3
2.280944510E-1,-3.437499981E-3,1.512499992E-3,-9.212499484E-3
2.306021430E-1,5.087499972E-3,-8.249999955E-3,-8.112499490E-3
2.331089050E-1,-9.624999948E-4,-1.306249946E-2,-6.874999963E-4
2.356149820E-1,-1.691249944E-2,-1.306249946E-2,5.362499971E-3
2.381218260E-1,-3.519999981E-2,-7.012499962E-3,1.264999993E-2
2.406295180E-1,-3.396249935E-2,-3.299999982E-3,9.074999951E-3
2.431362890E-1,-1.567500085E-2,-2.062499989E-3,9.074999951E-3
2.456423520E-1,1.608750038E-2,-2.062499989E-3,2.887499984E-3
2.481491620E-1,4.537500069E-2,-2.062499989E-3,-6.874999963E-4
2.506568550E-1,5.637500063E-2,-8.249999955E-4,-5.637499969E-3
2.531636260E-1,4.056249931E-2,-2.062499989E-3,-3.162499983E-3
2.556697030E-1,1.361249946E-2,2.749999985E-3,-1.924999990E-3
2.581765470E-1,-1.196249947E-2,1.141249947E-2,-1.924999990E-3
2.606841620E-1,-2.667500079E-2,1.746249944E-2,-5.637499969E-3
2.631910100E-1,-2.791249938E-2,1.374999993E-2,-9.212499484E-3
2.656970870E-1,-1.567500085E-2,5.224999972E-3,-1.044999994E-2
2.682039310E-1,2.749999985E-4,-5.774999969E-3,-1.044999994E-2
2.707115470E-1,5.087499972E-3,-1.429999992E-2,-1.924999990E-3
2.732183950E-1,-4.674999975E-3,-1.677500084E-2,5.362499971E-3
2.757244720E-1,-2.048750035E-2,-1.553750038E-2,1.388750039E-2
2.782313160E-1,-2.667500079E-2,-5.774999969E-3,1.512499992E-2
2.807390080E-1,-1.567500085E-2,-3.299999982E-3,1.264999993E-2
2.832457660E-1,1.003750041E-2,4.124999978E-4,7.837500423E-3
2.857519200E-1,3.932499886E-2,-5.774999969E-3,5.499999970E-4
2.882586870E-1,4.908749834E-2,-5.774999969E-3,-1.924999990E-3
2.907663790E-1,3.327500075E-2,-8.249999955E-3,-4.399999976E-3
2.932731500E-1,5.087499972E-3,-7.012499962E-3,-6.874999963E-4
2.957793040E-1,-1.924999990E-2,7.699999958E-3,-4.399999976E-3
2.982859940E-1,-3.272499889E-2,1.869999990E-2,-5.637499969E-3
3.007937640E-1,-2.667500079E-2,2.351249941E-2,-9.212499484E-3
3.033005350E-1,-8.249999955E-3,1.141249947E-2,-1.416249946E-2
3.058065730E-1,1.251249947E-2,4.124999978E-4,-1.168750040E-2
3.083133400E-1,1.608750038E-2,-1.182499994E-2,-8.112499490E-3
3.108210950E-1,2.612499986E-3,-1.677500084E-2,1.787499990E-3
3.133278670E-1,-1.567500085E-2,-1.306249946E-2,1.031249948E-2
3.158339390E-1,-2.543750033E-2,-2.062499989E-3,1.636249945E-2
3.183407830E-1,-1.814999990E-2,1.512499992E-3,1.264999993E-2
3.208484560E-1,1.512499992E-3,-3.299999982E-3,9.074999951E-3
3.233552270E-1,2.832499892E-2,-9.349999949E-3,2.887499984E-3
3.258613040E-1,4.056249931E-2,-1.306249946E-2,-6.874999963E-4
3.283681480E-1,3.561250120E-2,-7.012499962E-3,-3.162499983E-3
3.308758410E-1,1.361249946E-2,4.124999978E-4,-1.924999990E-3
3.333826120E-1,-9.487500414E-3,1.251249947E-2,-3.162499983E-3
3.358886890E-1,-2.667500079E-2,1.746249944E-2,-8.112499490E-3
3.383955330E-1,-2.667500079E-2,1.993750036E-2,-1.168750040E-2
3.409032250E-1,-9.487500414E-3,1.141249947E-2,-1.539999992E-2
3.434099970E-1,1.127499994E-2,4.124999978E-4,-1.168750040E-2
3.459160680E-1,1.732499897E-2,-1.306249946E-2,-4.399999976E-3
3.484229130E-1,7.562499959E-3,-1.553750038E-2,6.599999964E-3
3.509305330E-1,-1.319999993E-2,-1.553750038E-2,1.512499992E-2
3.534373810E-1,-2.914999984E-2,-7.012499962E-3,1.883750036E-2
3.559434430E-1,-2.296249941E-2,-2.062499989E-3,1.636249945E-2
3.584502870E-1,-9.624999948E-4,-7.012499962E-3,1.264999993E-2
3.609579030E-1,2.461249940E-2,-9.349999949E-3,2.887499984E-3
3.634647470E-1,3.932499886E-2,-1.058750041E-2,-4.399999976E-3
3.659708240E-1,3.437500075E-2,-8.249999955E-3,-5.637499969E-3
3.684776680E-1,1.361249946E-2,-8.249999955E-4,-5.637499969E-3
3.709852830E-1,-9.487500414E-3,1.141249947E-2,-4.399999976E-3
3.734921310E-1,-2.543750033E-2,2.241249941E-2,-8.112499490E-3
3.759982080E-1,-2.667500079E-2,2.351249941E-2,-1.292499993E-2
3.785050530E-1,-1.072499994E-2,1.374999993E-2,-1.663750038E-2
3.810126680E-1,8.799999952E-3,-2.062499989E-3,-1.663750038E-2
3.835195160E-1,2.227500081E-2,-1.182499994E-2,-5.637499969E-3
3.860255730E-1,1.361249946E-2,-1.801249944E-2,6.599999964E-3
3.885324170E-1,-7.149999961E-3,-1.429999992E-2,1.883750036E-2
3.910400330E-1,-2.667500079E-2,-8.249999955E-3,2.131249942E-2
3.935468810E-1,-2.914999984E-2,-5.774999969E-3,2.007500082E-2
3.960529580E-1,-1.072499994E-2,-7.012499962E-3,1.154999994E-2
3.985597450E-1,1.732499897E-2,-9.349999949E-3,2.887499984E-3
4.010674370E-1,3.684999794E-2,-5.774999969E-3,-6.874999963E-3
4.035742750E-1,3.932499886E-2,1.512499992E-3,-9.212499484E-3
4.060803520E-1,2.227500081E-2,5.224999972E-3,-9.212499484E-3
4.085871350E-1,-9.624999948E-4,1.251249947E-2,-6.874999963E-3
4.110948270E-1,-1.924999990E-2,1.746249944E-2,-8.112499490E-3
4.136016750E-1,-2.296249941E-2,1.869999990E-2,-8.112499490E-3
4.161077520E-1,-9.487500414E-3,1.141249947E-2,-9.212499484E-3
4.186145190E-1,7.562499959E-3,-2.062499989E-3,-9.212499484E-3
4.211222110E-1,1.732499897E-2,-1.182499994E-2,-1.924999990E-3
4.236290600E-1,8.799999952E-3,-1.801249944E-2,4.124999978E-3
4.261351370E-1,-8.249999955E-3,-1.677500084E-2,1.512499992E-2
4.286419810E-1,-2.296249941E-2,-1.058750041E-2,1.759999990E-2
4.311495960E-1,-2.667500079E-2,-5.774999969E-3,1.388750039E-2
4.336564240E-1,-9.487500414E-3,-8.249999955E-4,6.599999964E-3
4.361625010E-1,1.484999992E-2,-8.249999955E-4,-1.924999990E-3
4.386692680E-1,3.808749840E-2,-3.299999982E-3,-4.399999976E-3
4.411769280E-1,3.932499886E-2,-4.537499975E-3,-8.112499490E-3
4.436837760E-1,2.103750035E-2,-2.062499989E-3,-5.637499969E-3
4.461898530E-1,-3.437499981E-3,2.749999985E-3,-3.162499983E-3
4.486966200E-1,-2.172499895E-2,1.498750038E-2,-5.637499969E-3
4.512043450E-1,-2.543750033E-2,1.746249944E-2,-6.874999963E-3
4.537111510E-1,-1.443750039E-2,1.622499898E-2,-1.168750040E-2
4.562173040E-1,6.324999966E-3,2.749999985E-3,-1.292499993E-2
4.587240720E-1,1.856249943E-2,-9.349999949E-3,-8.112499490E-3
4.612317640E-1,1.361249946E-2,-1.553750038E-2,1.787499990E-3
4.637385350E-1,-8.249999955E-3,-1.801249944E-2,1.264999993E-2
4.662446890E-1,-2.172499895E-2,-9.349999949E-3,1.883750036E-2
4.687515330E-1,-2.296249941E-2,-5.774999969E-3,1.883750036E-2
4.712591490E-1,-7.149999961E-3,-8.249999955E-4,1.388750039E-2
4.737659200E-1,1.361249946E-2,-7.012499962E-3,6.599999964E-3
4.762720740E-1,3.327500075E-2,-7.012499962E-3,-3.162499983E-3
4.787788550E-1,3.437500075E-2,-5.774999969E-3,-8.112499490E-3
4.812865470E-1,2.227500081E-2,4.124999978E-4,-8.112499490E-3
4.837933190E-1,2.749999985E-4,8.937500417E-3,-8.112499490E-3
4.862992420E-1,-1.691249944E-2,1.993750036E-2,-9.212499484E-3
4.888062210E-1,-2.172499895E-2,2.241249941E-2,-1.292499993E-2
4.913139130E-1,-1.443750039E-2,1.498750038E-2,-1.416249946E-2
4.938207610E-1,5.087499972E-3,2.749999985E-3,-1.168750040E-2
4.963268380E-1,1.608750038E-2,-1.182499994E-2,-6.874999963E-3
4.988336050E-1,1.608750038E-2,-1.553750038E-2,6.599999964E-3
5.013413120E-1,1.512499992E-3,-1.553750038E-2,1.512499992E-2
5.038481600E-1,-1.567500085E-2,-7.012499962E-3,2.007500082E-2
5.063542370E-1,-2.296249941E-2,-3.299999982E-3,1.636249945E-2
5.088610040E-1,-1.567500085E-2,-2.062499989E-3,9.074999951E-3
5.113687250E-1,7.562499959E-3,-3.299999982E-3,1.787499990E-3
5.138755730E-1,2.956249937E-2,-8.249999955E-3,-4.399999976E-3
5.163816500E-1,3.079999983E-2,-5.774999969E-3,-6.874999963E-3
5.188883990E-1,1.732499897E-2,-2.062499989E-3,-5.637499969E-3
5.213960910E-1,-5.912499968E-3,2.749999985E-3,-3.162499983E-3
5.239029390E-1,-2.048750035E-2,1.017499994E-2,-4.399999976E-3
5.264090160E-1,-2.419999987E-2,1.746249944E-2,-6.874999963E-3
5.289157830E-1,-1.072499994E-2,1.746249944E-2,-8.112499490E-3
5.314234940E-1,1.003750041E-2,6.462499965E-3,-1.044999994E-2
5.339303430E-1,2.832499892E-2,-7.012499962E-3,-5.637499969E-3
5.364364200E-1,2.351249941E-2,-1.429999992E-2,5.499999970E-4
5.389431680E-1,3.849999979E-3,-1.553750038E-2,1.154999994E-2
5.414508600E-1,-1.567500085E-2,-9.349999949E-3,1.883750036E-2
5.439576740E-1,-2.543750033E-2,-5.774999969E-3,1.636249945E-2
5.464638280E-1,-2.048750035E-2,-5.774999969E-3,1.264999993E-2
5.489705950E-1,-3.437499981E-3,-4.537499975E-3,5.362499971E-3
5.514782880E-1,1.732499897E-2,-9.349999949E-3,-1.924999990E-3
5.539852860E-1,3.079999983E-2,-5.774999969E-3,-6.874999963E-3
5.564923550E-1,2.351249941E-2,-2.062499989E-3,-6.874999963E-3
5.589979820E-1,3.849999979E-3,5.224999972E-3,-5.637499969E-3
5.615056720E-1,-1.319999993E-2,1.141249947E-2,-4.399999976E-3
5.640124440E-1,-1.924999990E-2,1.869999990E-2,-6.874999963E-3
5.665186030E-1,-9.487500414E-3,1.993750036E-2,-1.168750040E-2
5.690253700E-1,8.799999952E-3,1.141249947E-2,-1.292499993E-2
5.715330470E-1,2.103750035E-2,-2.062499989E-3,-1.044999994E-2
5.740398180E-1,1.608750038E-2,-1.429999992E-2,-1.924999990E-3
5.765459720E-1,-2.199999988E-3,-1.677500084E-2,1.031249948E-2
5.790527390E-1,-2.296249941E-2,-1.677500084E-2,2.007500082E-2
5.815604320E-1,-2.791249938E-2,-8.249999955E-3,2.254999988E-2
5.840672080E-1,-2.048750035E-2,-4.537499975E-3,1.759999990E-2
5.865733620E-1,3.849999979E-3,-4.537499975E-3,1.031249948E-2
5.890801290E-1,2.708750032E-2,-9.349999949E-3,5.499999970E-4
5.915878210E-1,3.327500075E-2,-1.058750041E-2,-5.637499969E-3
5.940946690E-1,2.227500081E-2,-8.249999955E-3,-4.399999976E-3
5.966007510E-1,2.749999985E-4,1.512499992E-3,-5.637499969E-3
5.991075960E-1,-1.443750039E-2,1.374999993E-2,-4.399999976E-3
6.016152110E-1,-2.172499895E-2,2.241249941E-2,-8.112499490E-3
6.041220930E-1,-1.691249944E-2,2.117500082E-2,-1.044999994E-2
6.066279390E-1,-2.199999988E-3,5.224999972E-3,-1.292499993E-2
6.091349370E-1,1.251249947E-2,-5.774999969E-3,-9.212499484E-3
6.116426300E-1,1.856249943E-2,-1.429999992E-2,-6.874999963E-4
6.141494200E-1,8.799999952E-3,-1.058750041E-2,9.074999951E-3
6.166553430E-1,-5.912499968E-3,-7.012499962E-3,1.636249945E-2
6.191623410E-1,-1.814999990E-2,-2.062499989E-3,1.759999990E-2
6.216700330E-1,-2.048750035E-2,-5.774999969E-3,1.388750039E-2
6.241768040E-1,-7.149999961E-3,-9.349999949E-3,7.837500423E-3
6.266827230E-1,1.251249947E-2,-9.349999949E-3,5.499999970E-4
6.291897210E-1,2.227500081E-2,-7.012499962E-3,-4.399999976E-3
6.316974130E-1,1.979999989E-2,-4.537499975E-3,-8.112499490E-3
6.342042660E-1,5.087499972E-3,1.512499992E-3,-6.874999963E-3
6.367103430E-1,-8.249999955E-3,1.251249947E-2,-5.637499969E-3
6.392171100E-1,-1.814999990E-2,1.622499898E-2,-6.874999963E-3
6.417248220E-1,-1.072499994E-2,1.622499898E-2,-9.212499484E-3
6.442316700E-1,6.324999966E-3,8.937500417E-3,-1.044999994E-2
6.467377470E-1,2.351249941E-2,-5.774999969E-3,-8.112499490E-3
6.492445140E-1,2.227500081E-2,-1.182499994E-2,-6.874999963E-4
6.517522060E-1,7.562499959E-3,-1.306249946E-2,7.837500423E-3
6.542590780E-1,-1.319999993E-2,-1.182499994E-2,1.636249945E-2
6.567649240E-1,-2.791249938E-2,-8.249999955E-3,1.636249945E-2
6.592719220E-1,-2.667500079E-2,-3.299999982E-3,1.388750039E-2
6.617796200E-1,-1.196249947E-2,-8.249999955E-3,4.124999978E-3
6.642864680E-1,1.003750041E-2,-1.182499994E-2,-1.924999990E-3
6.667925450E-1,2.956249937E-2,-8.249999955E-3,-3.162499983E-3
6.692992970E-1,2.956249937E-2,-8.249999955E-4,-5.637499969E-3
6.718069890E-1,1.484999992E-2,3.987499978E-3,-3.162499983E-3
6.743137610E-1,-3.437499981E-3,1.141249947E-2,-4.399999976E-3
6.768199150E-1,-1.196249947E-2,1.869999990E-2,-8.112499490E-3
6.793266820E-1,-1.196249947E-2,1.622499898E-2,-1.292499993E-2
6.818343740E-1,2.612499986E-3,1.374999993E-2,-1.292499993E-2
6.843411550E-1,1.608750038E-2,2.749999985E-3,-1.168750040E-2
6.868473090E-1,2.103750035E-2,-5.774999969E-3,-5.637499969E-3
6.893540760E-1,3.849999979E-3,-1.429999992E-2,5.362499971E-3
6.918617690E-1,-2.172499895E-2,-1.182499994E-2,1.264999993E-2
6.943685400E-1,-3.519999981E-2,-9.349999949E-3,1.636249945E-2
6.968747030E-1,-2.914999984E-2,-5.774999969E-3,1.512499992E-2
6.993814700E-1,-5.912499968E-3,-5.774999969E-3,9.074999951E-3
7.018891620E-1,2.351249941E-2,-4.537499975E-3,1.787499990E-3
7.043959340E-1,4.056249931E-2,-3.299999982E-3,-5.637499969E-3
7.069021020E-1,3.932499886E-2,-3.299999982E-3,-6.874999963E-3
7.094088700E-1,2.213750035E-2,2.749999985E-3,-6.874999963E-3
7.119165670E-1,-2.199999988E-3,1.017499994E-2,-6.874999963E-3
7.144233380E-1,-1.814999990E-2,1.746249944E-2,-9.212499484E-3
7.169292610E-1,-2.186249942E-2,1.993750036E-2,-1.168750040E-2
7.194362590E-1,-8.387500420E-3,1.374999993E-2,-1.168750040E-2
7.219439470E-1,7.562499959E-3,-2.062499989E-3,-1.292499993E-2
7.244507180E-1,1.608750038E-2,-9.349999949E-3,-4.399999976E-3
7.269566460E-1,1.237499993E-2,-1.553750038E-2,3.024999984E-3
7.294636440E-1,-8.387500420E-3,-1.677500084E-2,1.512499992E-2
7.319713160E-1,-2.419999987E-2,-1.058750041E-2,2.007500082E-2
7.344780880E-1,-2.667500079E-2,-4.537499975E-3,1.636249945E-2
7.369840110E-1,-1.319999993E-2,-3.299999982E-3,1.031249948E-2
7.394910090E-1,1.113750041E-2,-4.537499975E-3,5.499999970E-4
7.419987010E-1,3.437500075E-2,-2.062499989E-3,-5.637499969E-3
7.445054720E-1,3.561250120E-2,-3.299999982E-3,-1.044999994E-2
7.470113950E-1,1.966249943E-2,1.649999991E-3,-9.212499484E-3
7.495183930E-1,1.374999993E-4,7.699999958E-3,-6.874999963E-3
7.520260860E-1,-1.567500085E-2,1.622499898E-2,-7.974999957E-3
7.545328570E-1,-2.309999987E-2,1.746249944E-2,-6.874999963E-3
7.570388090E-1,-1.567500085E-2,1.141249947E-2,-9.212499484E-3
7.595458070E-1,2.612499986E-3,-8.249999955E-4,-6.874999963E-3
7.620534650E-1,1.113750041E-2,-1.182499994E-2,-1.924999990E-3
7.645602360E-1,1.113750041E-2,-1.801249944E-2,4.124999978E-3
7.670661360E-1,-4.674999975E-3,-1.677500084E-2,1.154999994E-2
7.695731340E-1,-1.814999990E-2,-8.112499490E-3,1.388750039E-2
7.720808260E-1,-2.419999987E-2,-8.249999955E-4,1.278750040E-2
7.745875970E-1,-1.209999993E-2,4.124999978E-4,7.837500423E-3
7.770935200E-1,9.899999946E-3,-3.299999982E-3,3.024999984E-3
7.796005180E-1,3.189999983E-2,-5.774999969E-3,-3.162499983E-3
7.821082100E-1,4.056249931E-2,-5.774999969E-3,-6.874999963E-3
7.846149820E-1,3.066249937E-2,-2.062499989E-3,-4.399999976E-3
7.871209050E-1,5.087499972E-3,2.749999985E-3,-4.399999976E-3
7.896279030E-1,-1.567500085E-2,1.141249947E-2,-6.874999963E-3
7.921353640E-1,-2.667500079E-2,1.622499898E-2,-7.974999957E-3
7.946423660E-1,-1.814999990E-2,1.264999993E-2,-9.212499484E-3
7.971482840E-1,1.374999993E-3,5.224999972E-3,-9.212499484E-3
7.996552820E-1,1.856249943E-2,-5.774999969E-3,-9.212499484E-3
8.021629420E-1,1.732499897E-2,-9.349999949E-3,-6.874999963E-4
8.046697130E-1,-2.199999988E-3,-1.553750038E-2,6.599999964E-3
8.071758670E-1,-2.186249942E-2,-1.058750041E-2,1.388750039E-2
8.096826290E-1,-2.914999984E-2,-4.537499975E-3,1.388750039E-2
8.121903210E-1,-1.691249944E-2,-2.062499989E-3,1.031249948E-2
8.146970740E-1,1.237499993E-2,-3.299999982E-3,6.599999964E-3
8.172032270E-1,3.313750029E-2,-5.774999969E-3,-6.874999963E-4
8.197099950E-1,3.808749840E-2,-9.349999949E-3,-4.399999976E-3
8.222174560E-1,2.213750035E-2,-7.012499962E-3,-3.162499983E-3
8.247244580E-1,1.374999993E-4,1.649999991E-3,-3.162499983E-3
8.272303810E-1,-1.814999990E-2,1.017499994E-2,-5.637499969E-3
8.297373790E-1,-2.419999987E-2,2.117500082E-2,-9.212499484E-3
8.322448410E-1,-1.567500085E-2,1.869999990E-2,-1.044999994E-2
8.347518430E-1,1.374999993E-4,7.699999958E-3,-1.416249946E-2
8.372577660E-1,1.732499897E-2,-5.774999969E-3,-1.168750040E-2
8.397647450E-1,1.966249943E-2,-1.553750038E-2,-6.874999963E-4
8.422724370E-1,1.374999993E-3,-1.677500084E-2,1.031249948E-2
8.447792090E-1,-1.938750036E-2,-1.306249946E-2,1.759999990E-2
8.472851310E-1,-2.914999984E-2,-8.112499490E-3,1.759999990E-2
8.497921290E-1,-2.062499896E-2,-4.537499975E-3,1.636249945E-2
8.522997930E-1,2.612499986E-3,-5.774999969E-3,7.837500423E-3
8.548065640E-1,2.708750032E-2,-7.012499962E-3,-1.924999990E-3
8.573124670E-1,3.808749840E-2,-3.299999982E-3,-9.212499484E-3
8.598192350E-1,2.956249937E-2,-8.249999955E-4,-1.044999994E-2
8.623271580E-1,1.113750041E-2,5.224999972E-3,-9.212499484E-3
8.648339290E-1,-9.624999948E-3,1.374999993E-2,-9.212499484E-3
8.673398520E-1,-1.938750036E-2,1.993750036E-2,-6.874999963E-3
8.698468500E-1,-1.567500085E-2,1.869999990E-2,-9.212499484E-3
8.723545420E-1,-1.099999994E-3,6.462499965E-3,-1.044999994E-2
8.748613130E-1,9.899999946E-3,-9.349999949E-3,-7.974999957E-3
8.773672370E-1,7.562499959E-3,-1.801249944E-2,-1.924999990E-3
8.798742260E-1,-1.099999994E-3,-1.911249943E-2,9.074999951E-3
8.823819180E-1,-1.691249944E-2,-1.058750041E-2,1.759999990E-2
8.848886890E-1,-2.419999987E-2,-3.299999982E-3,1.759999990E-2
8.873946070E-1,-1.814999990E-2,-3.299999982E-3,1.388750039E-2
8.899016050E-1,-1.099999994E-3,-7.012499962E-3,4.124999978E-3
8.924092830E-1,2.461249940E-2,-9.349999949E-3,-6.874999963E-4
8.949160540E-1,3.684999794E-2,-9.349999949E-3,-4.399999976E-3
8.974220060E-1,3.066249937E-2,-2.062499989E-3,-5.637499969E-3
8.999290040E-1,1.113750041E-2,6.462499965E-3,-5.637499969E-3
9.024366960E-1,-1.086249948E-2,1.374999993E-2,-1.924999990E-3
9.049434670E-1,-1.938750036E-2,1.622499898E-2,-5.637499969E-3
9.074493900E-1,-1.938750036E-2,1.374999993E-2,-9.212499484E-3
9.099563880E-1,-5.912499968E-3,6.462499965E-3,-1.168750040E-2
9.124640810E-1,9.899999946E-3,-8.249999955E-4,-1.044999994E-2
9.149708520E-1,1.608750038E-2,-8.112499490E-3,-3.162499983E-3
9.174767750E-1,5.087499972E-3,-1.058750041E-2,4.124999978E-3
9.199837780E-1,-1.567500085E-2,-1.058750041E-2,1.388750039E-2
9.224914700E-1,-2.419999987E-2,-8.112499490E-3,1.883750036E-2
9.249982420E-1,-2.062499896E-2,-8.112499490E-3,1.512499992E-2
9.275041650E-1,-1.099999994E-3,-1.058750041E-2,1.031249948E-2
9.300111630E-1,2.213750035E-2,-8.112499490E-3,1.787499990E-3
9.325186530E-1,3.561250120E-2,-3.299999982E-3,-3.162499983E-3
9.350256550E-1,3.066249937E-2,2.749999985E-3,-5.637499969E-3
9.375315780E-1,1.361249946E-2,5.224999972E-3,-6.874999963E-3
9.400385760E-1,-7.149999961E-3,1.017499994E-2,-5.637499969E-3
9.425460380E-1,-1.938750036E-2,1.622499898E-2,-1.044999994E-2
9.450530400E-1,-1.938750036E-2,1.622499898E-2,-1.044999994E-2
9.475591940E-1,-4.674999975E-3,1.264999993E-2,-1.416249946E-2
9.500659610E-1,1.113750041E-2,2.749999985E-3,-1.044999994E-2
9.525736530E-1,1.856249943E-2,-8.112499490E-3,-6.874999963E-4
9.550804250E-1,7.562499959E-3,-1.677500084E-2,9.074999951E-3
9.575865780E-1,-1.086249948E-2,-1.677500084E-2,2.007500082E-2
9.600933460E-1,-2.667500079E-2,-1.553750038E-2,2.007500082E-2
9.626008210E-1,-2.543750033E-2,-7.012499962E-3,1.759999990E-2
9.651078230E-1,-7.149999961E-3,-3.299999982E-3,9.074999951E-3
9.676137460E-1,2.089999989E-2,4.124999978E-4,5.499999970E-4
9.701207440E-1,3.684999794E-2,-2.062499989E-3,-5.637499969E-3
9.726284370E-1,3.561250120E-2,-2.062499989E-3,-9.212499484E-3
9.751351740E-1,1.608750038E-2,4.124999978E-4,-4.399999976E-3
9.776413280E-1,-5.912499968E-3,3.987499978E-3,-4.399999976E-3
9.801480950E-1,-1.814999990E-2,1.498750038E-2,-5.637499969E-3
9.826557870E-1,-1.938750036E-2,1.993750036E-2,-6.874999963E-3
9.851625590E-1,-5.912499968E-3,1.746249944E-2,-9.212499484E-3
9.876687120E-1,9.899999946E-3,4.124999978E-4,-6.874999963E-3
9.901754800E-1,1.856249943E-2,-1.058750041E-2,-3.162499983E-3
9.926829410E-1,6.324999966E-3,-1.801249944E-2,5.362499971E-3
9.951899430E-1,-1.443750039E-2,-1.911249943E-2,1.154999994E-2
9.976958660E-1,-2.543750033E-2,-8.112499490E-3,1.388750039E-2
1.000202864E0,-2.667500079E-2,4.124999978E-4,1.278750040E-2
1.002710341E0,-1.319999993E-2,-8.249999955E-4,5.362499971E-3
1.005217343E0,7.562499959E-3,-4.537499975E-3,5.499999970E-4
1.007723266E0,3.313750029E-2,-7.012499962E-3,-5.637499969E-3
1.010230273E0,3.932499886E-2,-5.774999969E-3,-5.637499969E-3
1.012737965E0,2.584999986E-2,-8.249999955E-4,-4.399999976E-3
1.015244756E0,3.849999979E-3,5.224999972E-3,-3.162499983E-3
1.017750680E0,-1.443750039E-2,1.498750038E-2,-1.924999990E-3
1.020257697E0,-2.309999987E-2,1.622499898E-2,-6.874999963E-3
1.022765389E0,-1.319999993E-2,1.374999993E-2,-9.212499484E-3
1.025272160E0,2.612499986E-3,2.749999985E-3,-1.168750040E-2
1.027778083E0,1.608750038E-2,-9.349999949E-3,-6.874999963E-3
1.030284850E0,1.237499993E-2,-1.182499994E-2,1.787499990E-3
1.032792773E0,-5.912499968E-3,-1.553750038E-2,1.031249948E-2
1.035299545E0,-2.309999987E-2,-1.058750041E-2,1.636249945E-2
1.037805468E0,-3.162499890E-2,-5.774999969E-3,1.759999990E-2
1.040312466E0,-1.567500085E-2,-3.299999982E-3,1.388750039E-2
1.042820138E0,1.113750041E-2,-5.774999969E-3,5.362499971E-3
1.045326909E0,3.437500075E-2,-5.774999969E-3,-6.874999963E-4
1.047832832E0,4.166249931E-2,-5.774999969E-3,-4.399999976E-3
1.050339851E0,2.832499892E-2,-8.249999955E-4,-5.637499969E-3
1.052847544E0,5.087499972E-3,5.224999972E-3,-4.399999976E-3
1.055354334E0,-1.567500085E-2,1.374999993E-2,-9.212499484E-3
1.057860257E0,-2.667500079E-2,2.117500082E-2,-9.212499484E-3
1.060367240E0,-2.309999987E-2,1.622499898E-2,-1.044999994E-2
1.062874932E0,-3.437499981E-3,5.224999972E-3,-1.168750040E-2
1.065381704E0,1.237499993E-2,-8.112499490E-3,-6.874999963E-3
1.067887627E0,1.484999992E-2,-1.306249946E-2,-6.874999963E-4
1.070394625E0,-2.199999988E-3,-1.553750038E-2,1.031249948E-2
1.072902317E0,-2.186249942E-2,-1.058750041E-2,1.636249945E-2
1.075409088E0,-2.791249938E-2,-4.537499975E-3,1.759999990E-2
1.077915011E0,-1.814999990E-2,-3.299999982E-3,1.278750040E-2
1.080422009E0,7.562499959E-3,-5.774999969E-3,5.362499971E-3
1.082929702E0,3.313750029E-2,-5.774999969E-3,-6.874999963E-4
1.085436435E0,4.166249931E-2,-4.537499975E-3,-6.874999963E-3
1.087942358E0,2.956249937E-2,-4.537499975E-3,-5.637499969E-3
1.090449356E0,7.562499959E-3,1.649999991E-3,-5.637499969E-3
1.092957048E0,-1.319999993E-2,1.017499994E-2,-4.399999976E-3
1.095463886E0,-2.543750033E-2,1.869999990E-2,-6.874999963E-3
1.097969733E0,-1.691249944E-2,1.993750036E-2,-9.212499484E-3
1.100476717E0,1.374999993E-4,8.937500417E-3,-9.212499484E-3
1.102984409E0,1.484999992E-2,-8.112499490E-3,-6.874999963E-3
1.105491180E0,1.608750038E-2,-1.553750038E-2,-6.874999963E-4
1.107997103E0,-1.099999994E-3,-1.801249944E-2,7.837500423E-3
1.110504101E0,-1.814999990E-2,-1.429999992E-2,1.512499992E-2
1.113011563E0,-2.791249938E-2,-3.299999982E-3,1.636249945E-2
1.115518565E0,-2.062499896E-2,4.124999978E-4,1.154999994E-2
1.118024719E0,2.612499986E-3,-8.249999955E-4,3.024999984E-3
1.120531486E0,2.584999986E-2,-7.012499962E-3,-4.399999976E-3
1.123039178E0,3.932499886E-2,-8.112499490E-3,-6.874999963E-3
1.125545905E0,3.189999983E-2,-5.774999969E-3,-5.637499969E-3
1.128052059E0,1.237499993E-2,1.649999991E-3,-3.162499983E-3
1.130558813E0,-9.624999948E-3,1.264999993E-2,-6.874999963E-4
1.133066274E0,-2.186249942E-2,2.117500082E-2,-6.874999963E-3
1.135573281E0,-1.938750036E-2,1.622499898E-2,-9.212499484E-3
1.138079435E0,-8.387500420E-3,7.699999958E-3,-1.168750040E-2
1.140586202E0,7.562499959E-3,-4.537499975E-3,-1.168750040E-2
1.143093879E0,9.899999946E-3,-1.553750038E-2,-3.162499983E-3
1.145600651E0,-1.099999994E-3,-1.677500084E-2,6.599999964E-3
1.148106805E0,-2.062499896E-2,-1.306249946E-2,1.759999990E-2
1.150613572E0,-2.914999984E-2,-4.537499975E-3,1.636249945E-2
1.153121264E0,-2.186249942E-2,-4.537499975E-3,1.636249945E-2
1.155628035E0,3.849999979E-3,-7.012499962E-3,9.074999951E-3
1.158134189E0,2.956249937E-2,-7.012499962E-3,5.499999970E-4
1.160640956E0,4.166249931E-2,-5.774999969E-3,-3.162499983E-3
1.163148649E0,3.808749840E-2,-8.249999955E-4,-6.874999963E-3
1.165655420E0,1.856249943E-2,3.987499978E-3,-7.974999957E-3
1.168161300E0,-8.387500420E-3,1.264999993E-2,-7.974999957E-3
1.170668298E0,-2.543750033E-2,1.869999990E-2,-9.212499484E-3
1.173175741E0,-2.667500079E-2,1.746249944E-2,-1.292499993E-2
1.175682743E0,-1.443750039E-2,7.699999958E-3,-1.416249946E-2
1.178188647E0,7.562499959E-3,-2.062499989E-3,-9.212499484E-3
1.180695645E0,1.608750038E-2,-1.182499994E-2,-4.399999976E-3
1.183203337E0,7.562499959E-3,-1.429999992E-2,7.837500423E-3
1.185710108E0,-8.387500420E-3,-1.553750038E-2,1.636249945E-2
1.188216262E0,-2.309999987E-2,-1.058750041E-2,1.883750036E-2
1.190723029E0,-2.309999987E-2,-5.774999969E-3,1.759999990E-2
1.193230722E0,-7.149999961E-3,-5.774999969E-3,7.837500423E-3
1.195737493E0,2.337500080E-2,-5.774999969E-3,-1.924999990E-3
1.198243647E0,3.684999794E-2,-4.537499975E-3,-7.974999957E-3
1.200750399E0,3.561250120E-2,-8.249999955E-4,-9.212499484E-3
1.203258091E0,1.361249946E-2,1.649999991E-3,-7.974999957E-3
1.205764863E0,-9.624999948E-3,6.462499965E-3,-5.637499969E-3
1.208271021E0,-2.172499895E-2,1.251249947E-2,-4.399999976E-3
1.210777789E0,-2.419999987E-2,1.746249944E-2,-6.874999963E-3
1.213285471E0,-9.487500414E-3,1.141249947E-2,-8.112499490E-3
1.215792242E0,1.003750041E-2,1.512499992E-3,-8.112499490E-3
1.218298156E0,1.856249943E-2,-1.058750041E-2,-4.399999976E-3
1.220805154E0,8.799999952E-3,-1.677500084E-2,2.887499984E-3
1.223312842E0,-1.196249947E-2,-1.429999992E-2,1.154999994E-2
1.225819613E0,-2.543750033E-2,-9.487500414E-3,1.759999990E-2
1.228325536E0,-2.543750033E-2,-3.299999982E-3,1.264999993E-2
1.230832534E0,-9.487500414E-3,-2.062499989E-3,7.837500423E-3
1.233340226E0,1.608750038E-2,-2.062499989E-3,5.499999970E-4
1.235846997E0,3.684999794E-2,-4.537499975E-3,-6.874999963E-3
1.238352921E0,3.808749840E-2,-3.299999982E-3,-9.212499484E-3
1.240859919E0,2.227500081E-2,2.749999985E-3,-5.637499969E-3
1.243367611E0,2.749999985E-4,8.937500417E-3,-3.162499983E-3
1.245874382E0,-1.567500085E-2,1.746249944E-2,-5.637499969E-3
1.248380319E0,-1.924999990E-2,1.746249944E-2,-6.874999963E-3
1.250887317E0,-9.487500414E-3,1.251249947E-2,-1.044999994E-2
1.253395015E0,3.849999979E-3,4.124999978E-4,-1.044999994E-2
1.255901786E0,1.484999992E-2,-9.487500414E-3,-5.637499969E-3
1.258407695E0,8.799999952E-3,-1.801249944E-2,1.787499990E-3
1.260914693E0,-7.149999961E-3,-1.677500084E-2,1.264999993E-2
1.263422375E0,-2.419999987E-2,-1.058750041E-2,1.636249945E-2
1.265929223E0,-2.543750033E-2,-8.249999955E-4,1.512499992E-2
1.268435069E0,-9.487500414E-3,-4.537499975E-3,1.031249948E-2
1.270942067E0,1.608750038E-2,-5.774999969E-3,2.887499984E-3
1.273449760E0,3.451250121E-2,-7.012499962E-3,-6.874999963E-4
1.275956531E0,3.561250120E-2,-8.249999955E-3,-5.637499969E-3
1.278462454E0,1.979999989E-2,-3.299999982E-3,-4.399999976E-3
1.280969452E0,-9.624999948E-4,5.224999972E-3,-3.162499983E-3
1.283477144E0,-1.567500085E-2,1.498750038E-2,-5.637499969E-3
1.285983993E0,-2.172499895E-2,1.993750036E-2,-8.112499490E-3
1.288490085E0,-1.196249947E-2,1.622499898E-2,-1.292499993E-2
1.290996852E0,6.324999966E-3,3.987499978E-3,-1.292499993E-2
1.293504568E0,1.732499897E-2,-7.012499962E-3,-8.112499490E-3
1.296011339E0,1.484999992E-2,-1.429999992E-2,1.787499990E-3
1.298517521E0,-3.437499981E-3,-1.429999992E-2,1.154999994E-2
1.301024288E0,-2.419999987E-2,-1.182499994E-2,1.636249945E-2
1.303531996E0,-3.272499889E-2,-9.487500414E-3,1.759999990E-2
1.306038767E0,-2.172499895E-2,-5.774999969E-3,1.031249948E-2
1.308544921E0,5.087499972E-3,-7.012499962E-3,5.362499971E-3
1.311051688E0,3.203750029E-2,-4.537499975E-3,-3.162499983E-3
1.313559380E0,4.179999977E-2,-2.062499989E-3,-6.874999963E-3
1.316066152E0,2.832499892E-2,2.749999985E-3,-8.112499490E-3
1.318572305E0,3.849999979E-3,2.749999985E-3,-6.874999963E-3
1.321079073E0,-1.567500085E-2,1.251249947E-2,-3.162499983E-3
1.323586765E0,-1.924999990E-2,1.993750036E-2,-5.637499969E-3
1.326093613E0,-1.196249947E-2,1.622499898E-2,-8.112499490E-3
1.328599752E0,5.087499972E-3,6.462499965E-3,-1.044999994E-2
1.331106519E0,1.608750038E-2,-7.012499962E-3,-6.874999963E-3
1.333614212E0,1.361249946E-2,-1.677500084E-2,1.787499990E-3
1.336121060E0,-7.149999961E-3,-1.924999990E-2,1.031249948E-2
1.338627152E0,-2.419999987E-2,-1.058750041E-2,1.883750036E-2
1.341133919E0,-2.901249938E-2,-7.012499962E-3,1.759999990E-2
1.343641611E0,-1.814999990E-2,-4.537499975E-3,1.154999994E-2
1.346148459E0,5.087499972E-3,-5.774999969E-3,4.124999978E-3
1.348654536E0,3.079999983E-2,-7.012499962E-3,-1.924999990E-3
1.351161304E0,4.303750023E-2,-5.774999969E-3,-5.637499969E-3
1.353668996E0,3.079999983E-2,-2.062499989E-3,-5.637499969E-3
1.356175844E0,8.799999952E-3,5.224999972E-3,-4.399999976E-3
1.358681921E0,-1.567500085E-2,1.141249947E-2,-5.637499969E-3
1.361188688E0,-2.296249941E-2,1.869999990E-2,-6.874999963E-3
1.363696381E0,-2.048750035E-2,1.746249944E-2,-1.168750040E-2
1.366203229E0,-4.674999975E-3,7.699999958E-3,-1.292499993E-2
1.368709296E0,1.127499994E-2,-4.537499975E-3,-9.212499484E-3
1.371216063E0,1.127499994E-2,-1.182499994E-2,-4.399999976E-3
1.373723769E0,-3.437499981E-3,-1.553750038E-2,6.599999964E-3
1.376230617E0,-1.924999990E-2,-1.306249946E-2,1.388750039E-2
1.378736675E0,-2.667500079E-2,-5.774999969E-3,1.636249945E-2
1.381243443E0,-1.567500085E-2,-3.299999982E-3,1.636249945E-2
1.383751135E0,5.087499972E-3,-4.537499975E-3,7.837500423E-3
1.386257983E0,2.832499892E-2,-8.249999955E-3,4.124999978E-3
1.388764060E0,3.932499886E-2,-9.487500414E-3,-3.162499983E-3
1.391270827E0,2.832499892E-2,-5.774999969E-3,-4.399999976E-3
1.393778519E0,1.127499994E-2,1.512499992E-3,-6.874999963E-3
1.396285291E0,-1.072499994E-2,1.251249947E-2,-6.874999963E-3
1.398791445E0,-2.296249941E-2,2.241249941E-2,-8.112499490E-3
1.401298231E0,-2.048750035E-2,1.869999990E-2,-1.168750040E-2
1.403805923E0,-7.149999961E-3,8.937500417E-3,-1.044999994E-2
1.406312694E0,1.251249947E-2,-4.537499975E-3,-9.212499484E-3
1.408818834E0,1.979999989E-2,-1.801249944E-2,-6.874999963E-4
1.411325601E0,8.799999952E-3,-1.801249944E-2,9.074999951E-3
1.413833303E0,-1.319999993E-2,-1.306249946E-2,1.759999990E-2
1.416340074E0,-2.901249938E-2,-8.249999955E-3,1.883750036E-2
1.418846243E0,-2.543750033E-2,-4.537499975E-3,1.264999993E-2
1.421353010E0,-5.912499968E-3,-2.062499989E-3,9.074999951E-3
1.423860702E0,1.979999989E-2,-5.774999969E-3,-1.924999990E-3
1.426367474E0,3.684999794E-2,-3.299999982E-3,-8.112499490E-3
1.428873627E0,3.203750029E-2,-4.537499975E-3,-9.212499484E-3
1.431380472E0,1.251249947E-2,2.749999985E-3,-5.637499969E-3
1.433888087E0,-9.487500414E-3,8.937500417E-3,-3.162499983E-3
1.436394935E0,-2.172499895E-2,1.498750038E-2,-4.399999976E-3
1.438901012E0,-1.814999990E-2,1.993750036E-2,-5.637499969E-3
1.441407870E0,-3.437499981E-3,1.141249947E-2,-8.112499490E-3
1.443915486E0,1.608750038E-2,-8.249999955E-4,-9.212499484E-3
1.446422257E0,2.103750035E-2,-1.429999992E-2,-1.924999990E-3
1.448928411E0,7.562499959E-3,-1.801249944E-2,5.362499971E-3
1.451435255E0,-1.567500085E-2,-1.306249946E-2,1.636249945E-2
1.453942870E0,-3.024999984E-2,-7.012499962E-3,1.512499992E-2
1.456449728E0,-3.272499889E-2,-3.299999982E-3,1.388750039E-2
1.458955805E0,-1.196249947E-2,-5.774999969E-3,6.599999964E-3
1.461462578E0,1.608750038E-2,-7.012499962E-3,-6.874999963E-4
1.463970270E0,3.932499886E-2,-8.249999955E-3,-4.399999976E-3
1.466477041E0,4.303750023E-2,-2.062499989E-3,-6.874999963E-3
1.468983195E0,2.461249940E-2,1.512499992E-3,-4.399999976E-3
1.471489962E0,1.512499992E-3,1.017499994E-2,-3.162499983E-3
1.473997655E0,-1.691249944E-2,1.498750038E-2,-4.399999976E-3
1.476504503E0,-1.814999990E-2,1.746249944E-2,-8.112499490E-3
1.479010580E0,-1.196249947E-2,1.251249947E-2,-1.292499993E-2
1.481517347E0,5.087499972E-3,3.987499978E-3,-1.044999994E-2
1.484025039E0,1.484999992E-2,-7.012499962E-3,-8.112499490E-3
1.486531810E0,3.849999979E-3,-1.553750038E-2,4.124999978E-3
1.489037964E0,-1.319999993E-2,-1.677500084E-2,1.154999994E-2
1.491544703E0,-2.791249938E-2,-1.306249946E-2,1.636249945E-2
1.494052395E0,-2.667500079E-2,-7.012499962E-3,1.883750036E-2
1.496559257E0,-7.149999961E-3,-4.537499975E-3,1.031249948E-2
1.499065334E0,1.856249943E-2,-4.537499975E-3,5.362499971E-3
1.501572178E0,3.561250120E-2,-5.774999969E-3,-1.924999990E-3
1.504079789E0,3.808749840E-2,-4.537499975E-3,-5.637499969E-3
1.506586637E0,2.227500081E-2,-4.537499975E-3,-5.637499969E-3
1.509092709E0,-9.624999948E-4,5.224999972E-3,-4.399999976E-3
1.511599553E0,-1.924999990E-2,1.622499898E-2,-5.637499969E-3
1.514107168E0,-2.791249938E-2,2.241249941E-2,-1.044999994E-2
1.516614016E0,-1.814999990E-2,1.498750038E-2,-1.292499993E-2
1.519120093E0,2.749999985E-4,1.512499992E-3,-1.168750040E-2
1.521626937E0,1.484999992E-2,-9.487500414E-3,-5.637499969E-3
1.524134553E0,1.127499994E-2,-1.801249944E-2,4.124999978E-3
1.526641401E0,-9.624999948E-4,-1.429999992E-2,1.388750039E-2
1.529147478E0,-1.924999990E-2,-1.182499994E-2,2.131249942E-2
1.531654322E0,-2.667500079E-2,-3.299999982E-3,1.759999990E-2
1.534161947E0,-1.691249944E-2,-4.537499975E-3,1.154999994E-2
1.536668796E0,1.003750041E-2,-3.299999982E-3,4.124999978E-3
1.539174873E0,3.327500075E-2,-3.299999982E-3,-3.162499983E-3
1.541681717E0,4.179999977E-2,-3.299999982E-3,-8.112499490E-3
1.544189332E0,2.832499892E-2,4.124999978E-4,-8.112499490E-3
1.546696194E0,5.087499972E-3,6.462499965E-3,-6.874999963E-3
1.549202271E0,-1.567500085E-2,1.141249947E-2,-6.874999963E-3
1.551709120E0,-2.543750033E-2,1.869999990E-2,-6.874999963E-3
1.554216334E0,-1.691249944E-2,1.869999990E-2,-8.112499490E-3
1.556723423E0,2.749999985E-3,2.749999985E-3,-9.212499484E-3
1.559229661E0,1.732499897E-2,-1.182499994E-2,-4.399999976E-3
1.561736505E0,1.361249946E-2,-1.924999990E-2,5.499999970E-4
1.564244120E0,-9.624999948E-4,-1.429999992E-2,9.074999951E-3
1.566750969E0,-2.048750035E-2,-1.058750041E-2,1.388750039E-2
1.569257045E0,-2.901249938E-2,-2.062499989E-3,1.512499992E-2
1.571763890E0,-2.048750035E-2,4.124999978E-4,1.031249948E-2
1.574271505E0,2.749999985E-3,-5.774999969E-3,2.887499984E-3
1.576778353E0,2.832499892E-2,-8.249999955E-3,-1.924999990E-3
1.579284435E0,3.932499886E-2,-8.249999955E-3,-5.637499969E-3
1.581791279E0,3.203750029E-2,-3.299999982E-3,-5.637499969E-3
1.584298895E0,7.562499959E-3,1.512499992E-3,-3.162499983E-3
1.586805757E0,-1.443750039E-2,1.141249947E-2,-1.924999990E-3
1.589311834E0,-2.296249941E-2,1.498750038E-2,-4.399999976E-3
1.591818678E0,-1.691249944E-2,1.746249944E-2,-1.044999994E-2
1.594326293E0,3.849999979E-3,7.699999958E-3,-1.292499993E-2
1.596833141E0,1.732499897E-2,-2.062499989E-3,-1.168750040E-2
1.599339218E0,1.361249946E-2,-1.182499994E-2,-3.162499983E-3
1.601846058E0,-4.674999975E-3,-1.429999992E-2,9.074999951E-3
1.604353673E0,-2.419999987E-2,-1.182499994E-2,1.512499992E-2
1.606860517E0,-3.272499889E-2,-5.774999969E-3,1.636249945E-2
1.609366594E0,-1.924999990E-2,-3.299999982E-3,1.388750039E-2
1.611873438E0,8.799999952E-3,-4.537499975E-3,5.362499971E-3
1.614381054E0,3.451250121E-2,-3.299999982E-3,5.499999970E-4
1.616887902E0,4.551250115E-2,-7.012499962E-3,-4.399999976E-3
1.619393979E0,3.203750029E-2,-3.299999982E-3,-5.637499969E-3
1.621900823E0,1.003750041E-2,3.987499978E-3,-6.874999963E-3
1.624408438E0,-1.196249947E-2,1.251249947E-2,-5.637499969E-3
1.626915286E0,-2.419999987E-2,2.241249941E-2,-9.212499484E-3
1.629421363E0,-2.048750035E-2,1.993750036E-2,-1.044999994E-2
1.631928202E0,-5.912499968E-3,8.937500417E-3,-1.292499993E-2
1.634435818E0,8.799999952E-3,-5.774999969E-3,-1.168750040E-2
1.636942656E0,1.251249947E-2,-1.306249946E-2,-6.874999963E-4
1.639448810E0,2.749999985E-3,-1.677500084E-2,9.074999951E-3
1.641955577E0,-1.319999993E-2,-1.306249946E-2,1.759999990E-2
1.644463269E0,-2.419999987E-2,-9.487500414E-3,1.883750036E-2
1.646970046E0,-2.172499895E-2,-4.537499975E-3,1.636249945E-2
1.649476199E0,-2.199999988E-3,-7.012499962E-3,9.074999951E-3
1.651982967E0,2.351249941E-2,-9.487500414E-3,-6.874999963E-4
1.654490659E0,3.684999794E-2,-5.774999969E-3,-5.637499969E-3
1.656997430E0,3.203750029E-2,-8.249999955E-4,-8.112499490E-3
1.659503584E0,1.361249946E-2,5.224999972E-3,-8.112499490E-3
1.662010351E0,-1.072499994E-2,1.017499994E-2,-6.874999963E-3
1.664517967E0,-2.048750035E-2,1.746249944E-2,-8.112499490E-3
1.667024815E0,-2.048750035E-2,1.622499898E-2,-8.112499490E-3
1.669530892E0,-4.674999975E-3,1.141249947E-2,-1.044999994E-2
1.672037736E0,1.361249946E-2,-8.249999955E-4,-8.112499490E-3
1.674545428E0,1.856249943E-2,-1.306249946E-2,-5.637499969E-3
1.677052200E0,7.562499959E-3,-1.553750038E-2,4.124999978E-3
1.679558363E0,-1.567500085E-2,-1.058750041E-2,1.512499992E-2
1.682065131E0,-2.791249938E-2,-5.774999969E-3,1.636249945E-2
1.684572827E0,-2.667500079E-2,-3.299999982E-3,1.388750039E-2
1.687079598E0,-1.072499994E-2,-5.774999969E-3,6.599999964E-3
1.689585748E0,1.361249946E-2,-1.058750041E-2,2.887499984E-3
1.692092515E0,3.808749840E-2,-7.012499962E-3,-4.399999976E-3
1.694600208E0,4.056249931E-2,-3.299999982E-3,-8.112499490E-3
1.697106979E0,2.227500081E-2,5.224999972E-3,-4.399999976E-3
1.699613133E0,2.749999985E-4,1.017499994E-2,-5.637499969E-3
1.702119900E0,-1.691249944E-2,1.374999993E-2,-4.399999976E-3
1.704627592E0,-2.296249941E-2,1.498750038E-2,-6.874999963E-3
1.707134363E0,-9.487500414E-3,8.937500417E-3,-9.212499484E-3
1.709640517E0,8.799999952E-3,4.124999978E-4,-9.212499484E-3
1.712147285E0,1.484999992E-2,-8.249999955E-3,-5.637499969E-3
1.714654952E0,6.324999966E-3,-1.553750038E-2,6.599999964E-3
1.717161723E0,-1.567500085E-2,-1.677500084E-2,1.278750040E-2
1.719667882E0,-2.914999984E-2,-1.058750041E-2,2.007500082E-2
1.722174649E0,-2.543750033E-2,-5.774999969E-3,1.512499992E-2
1.724682341E0,-4.674999975E-3,-4.537499975E-3,7.837500423E-3
1.727189093E0,2.337500080E-2,-3.299999982E-3,2.887499984E-3
1.729695247E0,4.166249931E-2,-5.774999969E-3,-3.162499983E-3
1.732202014E0,3.808749840E-2,-5.774999969E-3,-4.399999976E-3
1.734709706E0,1.732499897E-2,-3.299999982E-3,-6.874999963E-3
1.737216477E0,-5.912499968E-3,5.224999972E-3,-6.874999963E-3
1.739722631E0,-2.296249941E-2,1.498750038E-2,-7.974999957E-3
1.742229398E0,-2.543750033E-2,1.993750036E-2,-9.212499484E-3
1.744737091E0,-1.196249947E-2,1.622499898E-2,-1.044999994E-2
1.747243862E0,6.324999966E-3,3.987499978E-3,-1.168750040E-2
1.749750016E0,1.608750038E-2,-1.058750041E-2,-4.399999976E-3
1.752256783E0,1.237499993E-2,-1.677500084E-2,4.124999978E-3
1.754764446E0,-5.912499968E-3,-1.677500084E-2,1.512499992E-2
1.757271218E0,-2.296249941E-2,-1.182499994E-2,2.007500082E-2
1.759777372E0,-2.791249938E-2,-7.012499962E-3,1.759999990E-2
1.762284139E0,-1.567500085E-2,-4.537499975E-3,1.278750040E-2
1.764791831E0,8.799999952E-3,-3.299999982E-3,2.887499984E-3
1.767298602E0,3.189999983E-2,-4.537499975E-3,-4.399999976E-3
1.769804785E0,3.808749840E-2,-3.299999982E-3,-7.974999957E-3
1.772311552E0,2.584999986E-2,-8.249999955E-4,-9.212499484E-3
1.774819250E0,3.849999979E-3,5.224999972E-3,-6.874999963E-3
1.777326252E0,-1.319999993E-2,1.264999993E-2,-6.874999963E-3
1.779832175E0,-1.938750036E-2,2.117500082E-2,-4.399999976E-3
1.782339173E0,-1.319999993E-2,1.498750038E-2,-7.974999957E-3
1.784846634E0,2.612499986E-3,2.749999985E-3,-7.974999957E-3
1.787353636E0,1.237499993E-2,-8.249999955E-3,-7.974999957E-3
1.789859559E0,1.113750041E-2,-1.801249944E-2,5.499999970E-4
1.792366557E0,-4.674999975E-3,-1.677500084E-2,1.031249948E-2
1.794874019E0,-2.062499896E-2,-9.349999949E-3,1.512499992E-2
1.797380790E0,-2.543750033E-2,-2.062499989E-3,1.512499992E-2
1.799886944E0,-1.814999990E-2,-3.299999982E-3,1.031249948E-2
1.802393711E0,3.849999979E-3,-4.537499975E-3,4.124999978E-3
1.804901394E0,3.066249937E-2,-8.249999955E-3,-6.874999963E-4
1.807408165E0,4.166249931E-2,-5.774999969E-3,-5.637499969E-3
1.809914319E0,3.189999983E-2,-3.299999982E-3,-4.399999976E-3
1.812421317E0,7.562499959E-3,5.224999972E-3,-4.399999976E-3
1.814928802E0,-1.443750039E-2,1.264999993E-2,-1.924999990E-3
1.817435804E0,-2.667500079E-2,1.746249944E-2,-5.637499969E-3
1.819941693E0,-1.938750036E-2,1.622499898E-2,-1.044999994E-2
1.822448691E0,-3.437499981E-3,7.699999958E-3,-1.168750040E-2
1.824956153E0,1.237499993E-2,-4.537499975E-3,-1.044999994E-2
1.827462924E0,1.484999992E-2,-1.306249946E-2,-1.924999990E-3
1.829969078E0,-1.099999994E-3,-1.429999992E-2,6.599999964E-3
1.832476076E0,-2.296249941E-2,-1.306249946E-2,1.636249945E-2
1.834983538E0,-2.914999984E-2,-9.349999949E-3,1.883750036E-2
1.837490540E0,-1.814999990E-2,-5.774999969E-3,1.512499992E-2
1.839996463E0,6.324999966E-3,-5.774999969E-3,9.074999951E-3
1.842503461E0,3.313750029E-2,-4.537499975E-3,5.499999970E-4
1.845010903E0,4.289999977E-2,-4.537499975E-3,-5.637499969E-3
1.847517905E0,3.313750029E-2,-2.062499989E-3,-7.974999957E-3
1.850023843E0,1.237499993E-2,2.749999985E-3,-6.874999963E-3
1.852530841E0,-1.086249948E-2,1.622499898E-2,-7.974999957E-3
1.855038298E0,-2.419999987E-2,1.993750036E-2,-9.212499484E-3
1.857545300E0,-2.062499896E-2,1.993750036E-2,-1.168750040E-2
1.860051227E0,-9.624999948E-3,8.937500417E-3,-1.168750040E-2
1.862558225E0,1.113750041E-2,-4.537499975E-3,-7.974999957E-3
1.865065686E0,1.608750038E-2,-1.429999992E-2,-1.924999990E-3
1.867572688E0,5.087499972E-3,-1.801249944E-2,9.074999951E-3
1.870078612E0,-1.196249947E-2,-1.801249944E-2,1.759999990E-2
1.872585610E0,-2.667500079E-2,-8.249999955E-3,1.759999990E-2
1.875093071E0,-2.186249942E-2,-8.249999955E-4,1.512499992E-2
1.877600073E0,1.374999993E-4,-8.249999955E-4,4.124999978E-3
1.880105996E0,2.832499892E-2,-3.299999982E-3,-3.162499983E-3
1.882612994E0,3.808749840E-2,-4.537499975E-3,-7.974999957E-3
1.885120471E0,2.832499892E-2,-3.299999982E-3,-6.874999963E-3
1.887627473E0,6.324999966E-3,-2.062499989E-3,-3.162499983E-3
1.890133396E0,-1.086249948E-2,6.462499965E-3,-4.399999976E-3
1.892640394E0,-2.296249941E-2,1.374999993E-2,-1.924999990E-3
1.895147874E0,-2.062499896E-2,2.117500082E-2,-7.974999957E-3
1.897654876E0,-3.437499981E-3,1.141249947E-2,-1.044999994E-2
1.900160760E0,1.484999992E-2,-3.299999982E-3,-9.212499484E-3
1.902667758E0,2.089999989E-2,-1.553750038E-2,-3.162499983E-3
1.905175220E0,5.087499972E-3,-1.911249943E-2,7.837500423E-3
1.907682222E0,-1.319999993E-2,-1.058750041E-2,1.154999994E-2
1.910188145E0,-2.543750033E-2,-4.537499975E-3,1.636249945E-2
1.912695143E0,-2.667500079E-2,4.124999978E-4,1.154999994E-2
1.915202605E0,-1.196249947E-2,-2.062499989E-3,7.837500423E-3
1.917709607E0,1.361249946E-2,-5.774999969E-3,5.499999970E-4
1.920215530E0,3.561250120E-2,-7.012499962E-3,-6.874999963E-3
1.922722528E0,3.932499886E-2,-4.537499975E-3,-6.874999963E-3
1.925229985E0,2.461249940E-2,4.124999978E-4,-4.399999976E-3
1.927736987E0,1.374999993E-3,1.017499994E-2,-1.924999990E-3
1.930242881E0,-1.567500085E-2,1.622499898E-2,-4.399999976E-3
1.932749879E0,-2.186249942E-2,1.498750038E-2,-7.974999957E-3
1.935257360E0,-1.086249948E-2,1.264999993E-2,-1.044999994E-2
1.937764362E0,5.087499972E-3,4.124999978E-4,-1.292499993E-2
1.940270285E0,1.361249946E-2,-8.249999955E-3,-7.974999957E-3
1.942777283E0,5.087499972E-3,-1.306249946E-2,2.887499984E-3
1.945284745E0,-1.319999993E-2,-1.429999992E-2,1.278750040E-2
1.947791747E0,-2.543750033E-2,-9.349999949E-3,1.759999990E-2
1.950297670E0,-2.543750033E-2,-7.012499962E-3,1.759999990E-2
1.952804668E0,-8.387500420E-3,-8.249999955E-3,1.512499992E-2
1.955312360E0,1.856249943E-2,-1.058750041E-2,7.837500423E-3
1.957819208E0,4.166249931E-2,-1.182499994E-2,-6.874999963E-4
1.960325285E0,3.808749840E-2,-8.249999955E-3,-1.924999990E-3
1.962832052E0,2.213750035E-2,4.124999978E-4,-3.162499983E-3
1.965339528E0,-2.199999988E-3,7.699999958E-3,-4.399999976E-3
1.967846530E0,-2.186249942E-2,1.993750036E-2,-1.044999994E-2
1.970352448E0,-2.914999984E-2,1.993750036E-2,-1.292499993E-2
1.972859446E0,-1.814999990E-2,1.622499898E-2,-1.787500083E-2
1.975367119E0,2.612499986E-3,3.987499978E-3,-1.416249946E-2
1.977873890E0,1.608750038E-2,-4.537499975E-3,-7.974999957E-3
1.980380092E0,1.113750041E-2,-1.306249946E-2,1.787499990E-3
1.982886860E0,-2.199999988E-3,-1.677500084E-2,1.388750039E-2
1.985394552E0,-2.062499896E-2,-1.306249946E-2,1.883750036E-2
1.987901400E0,-2.419999987E-2,-1.058750041E-2,1.759999990E-2
1.990407477E0,-1.319999993E-2,-4.537499975E-3,1.031249948E-2
1.992914244E0,1.361249946E-2,-4.537499975E-3,2.887499984E-3
1.995421937E0,3.313750029E-2,-2.062499989E-3,-3.162499983E-3
1.997928785E0,3.684999794E-2,-2.062499989E-3,-9.212499484E-3
2.000434631E0,2.089999989E-2,2.749999985E-3,-1.044999994E-2
2.002941629E0,-1.099999994E-3,5.224999972E-3,-7.974999957E-3
2.005449326E0,-1.567500085E-2,1.264999993E-2,-5.637499969E-3
2.007956174E0,-2.296249941E-2,1.622499898E-2,-6.874999963E-3
2.010462010E0,-1.319999993E-2,1.498750038E-2,-7.974999957E-3
2.012969008E0,5.087499972E-3,3.987499978E-3,-6.874999963E-3
2.015476706E0,1.484999992E-2,-1.182499994E-2,-4.399999976E-3
2.017983554E0,1.237499993E-2,-1.801249944E-2,5.362499971E-3
2.020489647E0,-3.437499981E-3,-1.911249943E-2,1.278750040E-2
2.022996414E0,-2.062499896E-2,-1.306249946E-2,1.759999990E-2
2.025504106E0,-2.667500079E-2,-3.299999982E-3,1.512499992E-2
2.028010955E0,-1.567500085E-2,4.124999978E-4,9.074999951E-3
2.030517032E0,5.087499972E-3,-4.537499975E-3,4.124999978E-3
2.033023799E0,2.708750032E-2,-5.774999969E-3,-4.399999976E-3
2.035531491E0,3.561250120E-2,-4.537499975E-3,-4.399999976E-3
2.038038339E0,2.461249940E-2,-2.062499989E-3,-6.874999963E-3
2.040544416E0,5.087499972E-3,5.224999972E-3,-5.637499969E-3
2.043051183E0,-1.319999993E-2,1.374999993E-2,-4.399999976E-3
2.045558842E0,-1.814999990E-2,1.746249944E-2,-7.974999957E-3
2.048065690E0,-1.443750039E-2,1.498750038E-2,-9.212499484E-3
2.050571767E0,2.612499986E-3,7.699999958E-3,-1.044999994E-2
2.053078534E0,1.608750038E-2,-4.537499975E-3,-7.974999957E-3
2.055586221E0,1.113750041E-2,-1.306249946E-2,-6.874999963E-4
2.058093070E0,-4.674999975E-3,-1.677500084E-2,6.599999964E-3
2.060599185E0,-2.419999987E-2,-1.182499994E-2,1.512499992E-2
2.063105953E0,-3.286249936E-2,-5.774999969E-3,1.512499992E-2
2.065613645E0,-2.296249941E-2,-4.537499975E-3,1.512499992E-2
2.068120493E0,2.612499986E-3,-4.537499975E-3,5.362499971E-3
2.070626570E0,2.708750032E-2,-5.774999969E-3,5.499999970E-4
2.073133337E0,4.289999977E-2,-3.299999982E-3,-4.399999976E-3
2.075641030E0,3.561250120E-2,-4.537499975E-3,-5.637499969E-3
2.078147878E0,1.484999992E-2,5.224999972E-3,-4.399999976E-3
2.080653955E0,-7.149999961E-3,1.264999993E-2,-4.399999976E-3
2.083160722E0,-2.186249942E-2,1.993750036E-2,-5.637499969E-3
2.085668399E0,-2.186249942E-2,1.622499898E-2,-1.044999994E-2
2.088175247E0,-7.149999961E-3,6.462499965E-3,-1.292499993E-2
2.090681343E0,9.899999946E-3,-4.537499975E-3,-9.212499484E-3
2.093188111E0,1.237499993E-2,-1.182499994E-2,-1.924999990E-3
2.095695784E0,2.612499986E-3,-1.429999992E-2,1.031249948E-2
2.098202632E0,-1.691249944E-2,-1.553750038E-2,1.636249945E-2
2.100708676E0,-2.914999984E-2,-7.012499962E-3,2.131249942E-2
2.103215520E0,-2.186249942E-2,-5.774999969E-3,1.512499992E-2
2.105723136E0,2.612499986E-3,-4.537499975E-3,6.599999964E-3
2.108229984E0,2.956249937E-2,-3.299999982E-3,-6.874999963E-4
2.110736061E0,4.166249931E-2,-2.062499989E-3,-7.974999957E-3
2.113242828E0,3.313750029E-2,-2.062499989E-3,-6.874999963E-3
2.115750520E0,9.899999946E-3,1.649999991E-3,-6.874999963E-3
2.118257368E0,-1.086249948E-2,1.017499994E-2,-4.399999976E-3
2.120763445E0,-2.419999987E-2,1.622499898E-2,-5.637499969E-3
2.123270289E0,-2.419999987E-2,1.746249944E-2,-6.874999963E-3
2.125777967E0,-7.149999961E-3,1.017499994E-2,-7.974999957E-3
2.128284738E0,1.113750041E-2,-3.299999982E-3,-1.168750040E-2
2.130790810E0,1.732499897E-2,-1.553750038E-2,-3.162499983E-3
2.133297577E0,3.849999979E-3,-1.429999992E-2,4.124999978E-3
2.135805337E0,-1.443750039E-2,-1.306249946E-2,1.512499992E-2
2.138312109E0,-2.543750033E-2,-5.774999969E-3,1.636249945E-2
2.140818157E0,-2.186249942E-2,-2.062499989E-3,1.388750039E-2
2.143324924E0,-5.912499968E-3,-2.062499989E-3,9.074999951E-3
2.145832693E0,1.856249943E-2,-4.537499975E-3,-6.874999963E-4
2.148339464E0,3.561250120E-2,-7.012499962E-3,-5.637499969E-3
2.150845541E0,3.437500075E-2,-3.299999982E-3,-6.874999963E-3
2.153352308E0,1.732499897E-2,1.649999991E-3,-5.637499969E-3
2.155860078E0,-2.199999988E-3,1.141249947E-2,-3.162499983E-3
2.158366849E0,-1.938750036E-2,1.746249944E-2,-4.399999976E-3
2.160872926E0,-1.814999990E-2,1.746249944E-2,-7.974999957E-3
2.163379770E0,-8.387500420E-3,8.937500417E-3,-1.044999994E-2
2.165887443E0,5.087499972E-3,-8.249999955E-4,-7.974999957E-3
2.168394215E0,1.361249946E-2,-9.349999949E-3,-4.399999976E-3
2.170900305E0,5.087499972E-3,-1.553750038E-2,4.124999978E-3
2.173407150E0,-1.196249947E-2,-1.677500084E-2,1.388750039E-2
2.175914765E0,-2.791249938E-2,-7.012499962E-3,1.512499992E-2
2.178421613E0,-2.419999987E-2,-8.249999955E-4,1.388750039E-2
2.180927690E0,-8.387500420E-3,-3.299999982E-3,1.154999994E-2
2.183434519E0,2.089999989E-2,-3.299999982E-3,2.887499984E-3
2.185942135E0,3.932499886E-2,-8.249999955E-3,-1.924999990E-3
2.188448983E0,3.437500075E-2,-5.774999969E-3,-4.399999976E-3
2.190955137E0,1.856249943E-2,-2.062499989E-3,-1.924999990E-3
2.193461904E0,-4.674999975E-3,6.462499965E-3,-3.162499983E-3
2.195969596E0,-2.186249942E-2,1.622499898E-2,-5.637499969E-3
2.198476367E0,-2.543750033E-2,2.241249941E-2,-7.974999957E-3
2.200982521E0,-1.319999993E-2,1.622499898E-2,-1.044999994E-2
2.203489289E0,6.324999966E-3,-8.249999955E-4,-1.044999994E-2
2.205996981E0,1.979999989E-2,-1.306249946E-2,-5.637499969E-3
2.208503780E0,1.484999992E-2,-1.911249943E-2,5.362499971E-3
2.211009934E0,-5.912499968E-3,-1.553750038E-2,1.402499992E-2
2.213516701E0,-2.667500079E-2,-1.058750041E-2,1.883750036E-2
2.216024394E0,-3.038750030E-2,-7.012499962E-3,1.759999990E-2
2.218531137E0,-1.567500085E-2,-5.774999969E-3,1.031249948E-2
2.221037291E0,1.113750041E-2,-5.774999969E-3,1.787499990E-3
2.223544058E0,3.561250120E-2,-3.299999982E-3,-6.737499963E-3
2.226051750E0,4.042499885E-2,-2.062499989E-3,-1.044999994E-2
2.228558521E0,2.461249940E-2,2.887499984E-3,-1.044999994E-2
2.231064675E0,1.374999993E-4,7.699999958E-3,-5.637499969E-3
2.233571442E0,-1.814999990E-2,1.498750038E-2,-4.399999976E-3
2.236079135E0,-2.186249942E-2,1.746249944E-2,-7.974999957E-3
2.238585906E0,-1.086249948E-2,1.374999993E-2,-7.974999957E-3
2.241092060E0,3.849999979E-3,4.124999978E-4,-9.212499484E-3
2.243598827E0,1.361249946E-2,-9.349999949E-3,-5.637499969E-3
2.246106519E0,7.424999960E-3,-1.553750038E-2,1.787499990E-3
2.248613291E0,-9.624999948E-3,-1.429999992E-2,1.154999994E-2
2.251119464E0,-2.309999987E-2,-1.058750041E-2,1.759999990E-2
2.253626231E0,-2.791249938E-2,-4.537499975E-3,1.512499992E-2
2.256133919E0,-1.209999993E-2,-3.299999982E-3,1.278750040E-2
2.258640690E0,9.899999946E-3,-8.112499490E-3,5.362499971E-3
2.261146862E0,3.313750029E-2,-8.112499490E-3,-3.162499983E-3
2.263653629E0,3.684999794E-2,-5.774999969E-3,-5.637499969E-3
2.266161327E0,2.337500080E-2,4.124999978E-4,-5.637499969E-3
2.268668098E0,3.849999979E-3,5.224999972E-3,-6.874999963E-4
2.271174252E0,-1.567500085E-2,1.264999993E-2,-5.637499969E-3
2.273681250E0,-2.186249942E-2,1.498750038E-2,-9.212499484E-3
2.276188711E0,-1.567500085E-2,1.374999993E-2,-1.416249946E-2
2.278695713E0,1.374999993E-3,5.224999972E-3,-1.539999992E-2
2.281201636E0,1.361249946E-2,-4.537499975E-3,-7.974999957E-3
2.283708404E0,1.237499993E-2,-1.182499994E-2,-6.874999963E-4
2.286216096E0,-5.912499968E-3,-1.677500084E-2,1.031249948E-2
2.288723098E0,-2.186249942E-2,-1.306249946E-2,1.636249945E-2
2.291229035E0,-2.543750033E-2,-9.349999949E-3,1.883750036E-2
2.293736033E0,-1.209999993E-2,-3.299999982E-3,1.512499992E-2
2.296243715E0,9.899999946E-3,-2.062499989E-3,6.599999964E-3
2.298750487E0,3.313750029E-2,-8.249999955E-4,-6.874999963E-4
2.301256410E0,3.918749839E-2,-3.299999982E-3,-6.737499963E-3
2.303763196E0,2.818750031E-2,-3.299999982E-3,-7.974999957E-3
2.306271119E0,6.324999966E-3,3.987499978E-3,-7.974999957E-3
2.308777905E0,-1.209999993E-2,1.498750038E-2,-7.974999957E-3
2.311283828E0,-2.433750033E-2,2.117500082E-2,-7.974999957E-3
2.313790610E0,-2.062499896E-2,1.746249944E-2,-9.212499484E-3
2.316298533E0,-2.337499987E-3,8.937500417E-3,-9.212499484E-3
2.318805304E0,1.237499993E-2,-9.349999949E-3,-5.637499969E-3
2.321311227E0,1.608750038E-2,-1.677500084E-2,3.024999984E-3
2.323817994E0,5.087499972E-3,-1.911249943E-2,1.154999994E-2
2.326325917E0,-1.457499992E-2,-1.306249946E-2,1.883750036E-2
2.328832689E0,-3.038750030E-2,-7.012499962E-3,2.007500082E-2
2.331338612E0,-2.433750033E-2,-2.062499989E-3,1.278750040E-2
2.333845610E0,1.374999993E-4,-2.062499989E-3,5.362499971E-3
2.336353302E0,2.708750032E-2,-4.537499975E-3,-5.637499969E-3
2.338860068E0,4.289999977E-2,-3.299999982E-3,-9.212499484E-3
2.341365991E0,3.066249937E-2,-8.249999955E-4,-7.974999957E-3
2.343872989E0,7.424999960E-3,2.887499984E-3,-6.737499963E-3
2.346380451E0,-1.567500085E-2,1.017499994E-2,-5.637499969E-3
2.348887453E0,-2.543750033E-2,1.869999990E-2,-5.637499969E-3
2.351393392E0,-1.814999990E-2,1.622499898E-2,-6.737499963E-3
2.353900390E0,1.374999993E-4,7.699999958E-3,-9.212499484E-3
2.356408072E0,1.718750037E-2,-5.774999969E-3,-6.737499963E-3
2.358914843E0,1.842499897E-2,-1.553750038E-2,5.499999970E-4
2.361420767E0,1.374999993E-3,-1.677500084E-2,9.074999951E-3
2.363927765E0,-1.938750036E-2,-1.182499994E-2,1.402499992E-2
2.366435457E0,-3.038750030E-2,-2.062499989E-3,1.402499992E-2
2.368942228E0,-2.543750033E-2,-8.249999955E-4,1.154999994E-2
2.371448151E0,-3.574999981E-3,-3.299999982E-3,3.024999984E-3
2.373955149E0,2.337500080E-2,-5.774999969E-3,-3.162499983E-3
2.376462842E0,4.042499885E-2,-3.299999982E-3,-4.399999976E-3
2.378969613E0,3.561250120E-2,-3.299999982E-3,-6.737499963E-3
2.381475555E0,1.608750038E-2,1.649999991E-3,-3.162499983E-3
2.383982553E0,-7.149999961E-3,1.017499994E-2,-3.162499983E-3
2.386490260E0,-1.938750036E-2,1.498750038E-2,-1.924999990E-3
2.388997031E0,-1.938750036E-2,1.622499898E-2,-7.974999957E-3
2.391502939E0,-4.674999975E-3,8.937500417E-3,-1.168750040E-2
2.394009937E0,1.237499993E-2,-3.299999982E-3,-1.044999994E-2
2.396517630E0,1.608750038E-2,-1.058750041E-2,-5.637499969E-3
2.399024401E0,2.612499986E-3,-1.429999992E-2,6.599999964E-3
2.401530324E0,-1.814999990E-2,-1.553750038E-2,1.402499992E-2
2.404037322E0,-2.791249938E-2,-9.349999949E-3,1.636249945E-2
2.406545014E0,-2.309999987E-2,-3.299999982E-3,1.278750040E-2
2.409051786E0,1.374999993E-4,-4.537499975E-3,9.074999951E-3
2.411557940E0,2.584999986E-2,-7.012499962E-3,4.124999978E-3
2.414064707E0,4.166249931E-2,-7.012499962E-3,-3.162499983E-3
2.416572399E0,3.684999794E-2,-7.012499962E-3,-5.637499969E-3
2.419079170E0,1.361249946E-2,-8.249999955E-4,-5.637499969E-3
2.421585324E0,-8.387500420E-3,8.937500417E-3,-5.637499969E-3
2.424092091E0,-2.667500079E-2,1.869999990E-2,-7.974999957E-3
2.426599784E0,-2.543750033E-2,2.241249941E-2,-1.168750040E-2
2.429106546E0,-1.333750039E-2,1.374999993E-2,-1.168750040E-2
2.431612700E0,7.424999960E-3,1.649999991E-3,-1.416249946E-2
2.434119467E0,1.608750038E-2,-1.058750041E-2,-5.637499969E-3
2.436627173E0,1.113750041E-2,-1.677500084E-2,5.362499971E-3
2.439134022E0,-5.912499968E-3,-1.553750038E-2,1.512499992E-2
2.441640098E0,-2.543750033E-2,-9.349999949E-3,2.007500082E-2
2.444146943E0,-2.791249938E-2,-7.012499962E-3,1.759999990E-2
2.446654558E0,-1.209999993E-2,-5.774999969E-3,1.402499992E-2
2.449161406E0,1.608750038E-2,-5.774999969E-3,3.024999984E-3
2.451667483E0,3.437500075E-2,-8.112499490E-3,-3.162499983E-3
2.454174250E0,3.808749840E-2,-3.299999982E-3,-7.974999957E-3
2.456681943E0,1.966249943E-2,1.649999991E-3,-9.212499484E-3
2.459188791E0,-3.574999981E-3,1.141249947E-2,-5.637499969E-3
2.461694868E0,-2.186249942E-2,1.622499898E-2,-6.737499963E-3
2.464201712E0,-2.186249942E-2,1.993750036E-2,-9.212499484E-3
2.466709327E0,-9.624999948E-3,1.498750038E-2,-1.044999994E-2
2.469216118E0,9.899999946E-3,-2.062499989E-3,-7.974999957E-3
2.471722271E0,2.213750035E-2,-1.553750038E-2,-1.924999990E-3
2.474229039E0,1.237499993E-2,-1.911249943E-2,6.599999964E-3
2.476736789E0,-9.624999948E-3,-1.553750038E-2,1.636249945E-2
2.479243560E0,-2.914999984E-2,-8.112499490E-3,1.636249945E-2
2.481749637E0,-2.914999984E-2,4.124999978E-4,1.402499992E-2
2.484256481E0,-1.209999993E-2,-2.062499989E-3,5.362499971E-3
2.486764102E0,1.484999992E-2,-3.299999982E-3,-1.924999990E-3
2.489270950E0,3.561250120E-2,-5.774999969E-3,-5.637499969E-3
2.491777027E0,3.808749840E-2,-3.299999982E-3,-6.737499963E-3
2.494283794E0,2.213750035E-2,4.124999978E-4,-3.162499983E-3
2.496791563E0,1.374999993E-4,6.462499965E-3,-6.874999963E-4
2.499298334E0,-1.814999990E-2,1.264999993E-2,-1.924999990E-3
2.501804411E0,-2.309999987E-2,1.622499898E-2,-6.737499963E-3
2.504311255E0,-1.209999993E-2,1.141249947E-2,-1.044999994E-2
2.506818948E0,6.324999966E-3,3.987499978E-3,-1.044999994E-2
2.509325719E0,1.842499897E-2,-4.537499975E-3,-7.974999957E-3
2.511831796E0,8.662499487E-3,-1.306249946E-2,1.787499990E-3
2.514338625E0,-1.086249948E-2,-1.306249946E-2,9.074999951E-3
2.516846317E0,-2.791249938E-2,-1.182499994E-2,1.636249945E-2
2.519353089E0,-3.162499890E-2,-8.112499490E-3,1.759999990E-2
2.521859186E0,-1.209999993E-2,-4.537499975E-3,1.154999994E-2
2.524366030E0,1.237499993E-2,-5.774999969E-3,6.599999964E-3
2.526873692E0,3.437500075E-2,-4.537499975E-3,-3.162499983E-3
2.529380463E0,4.042499885E-2,-4.537499975E-3,-5.637499969E-3
2.531886535E0,2.584999986E-2,1.649999991E-3,-6.737499963E-3
2.534393379E0,6.324999966E-3,5.224999972E-3,-7.974999957E-3
2.536901053E0,-1.209999993E-2,1.498750038E-2,-6.737499963E-3
2.539407824E0,-2.309999987E-2,1.993750036E-2,-1.044999994E-2
2.541913901E0,-1.691249944E-2,1.869999990E-2,-1.168750040E-2
2.544420745E0,-1.099999994E-3,6.462499965E-3,-1.292499993E-2
2.546928437E0,1.237499993E-2,-5.774999969E-3,-7.974999957E-3
2.549435209E0,1.113750041E-2,-1.429999992E-2,3.024999984E-3
2.551941285E0,-4.674999975E-3,-1.911249943E-2,1.154999994E-2
2.554447946E0,-2.062499896E-2,-1.429999992E-2,1.636249945E-2
2.556954551E0,-2.914999984E-2,-5.774999969E-3,1.636249945E-2
2.559462591E0,-1.938750036E-2,-3.299999982E-3,1.278750040E-2
2.561968670E0,3.849999979E-3,-3.299999982E-3,6.599999964E-3
2.564475475E0,2.942499891E-2,-3.299999982E-3,-3.162499983E-3
2.566983168E0,4.289999977E-2,-4.537499975E-3,-5.637499969E-3
2.569489954E0,3.313750029E-2,-2.062499989E-3,-6.737499963E-3
2.571996031E0,8.662499487E-3,-8.249999955E-4,-4.399999976E-3
2.574502875E0,-1.333750039E-2,1.017499994E-2,-4.399999976E-3
2.577010552E0,-2.543750033E-2,1.622499898E-2,-4.399999976E-3
2.579517323E0,-2.186249942E-2,1.746249944E-2,-7.974999957E-3
2.582023482E0,-5.912499968E-3,7.699999958E-3,-9.212499484E-3
2.584530250E0,1.237499993E-2,-5.774999969E-3,-9.212499484E-3
2.587037942E0,1.608750038E-2,-1.429999992E-2,-4.399999976E-3
2.589544713E0,1.374999993E-3,-1.677500084E-2,7.837500423E-3
2.592050867E0,-1.691249944E-2,-9.349999949E-3,1.402499992E-2
2.594557634E0,-2.543750033E-2,-4.537499975E-3,1.512499992E-2
2.597065326E0,-1.938750036E-2,-2.062499989E-3,1.402499992E-2
2.599572098E0,1.374999993E-4,-5.774999969E-3,6.599999964E-3
2.602078252E0,2.461249940E-2,-8.112499490E-3,5.499999970E-4
2.604585019E0,4.042499885E-2,-4.537499975E-3,-5.637499969E-3
2.607092697E0,3.684999794E-2,-2.062499989E-3,-6.737499963E-3
2.609599699E0,1.361249946E-2,5.224999972E-3,-7.974999957E-3
2.612105636E0,-9.624999948E-3,1.264999993E-2,-6.737499963E-3
2.614612634E0,-2.309999987E-2,1.993750036E-2,-5.637499969E-3
2.617120077E0,-1.938750036E-2,1.746249944E-2,-7.974999957E-3
2.619627079E0,-5.912499968E-3,1.017499994E-2,-1.044999994E-2
2.622132992E0,8.662499487E-3,-3.299999982E-3,-1.168750040E-2
2.624639759E0,1.361249946E-2,-1.182499994E-2,-4.399999976E-3
2.627147451E0,2.612499986E-3,-1.801249944E-2,6.599999964E-3
2.629654453E0,-1.567500085E-2,-1.429999992E-2,1.512499992E-2
2.632160377E0,-2.791249938E-2,-7.012499962E-3,1.883750036E-2
2.634667144E0,-2.433750033E-2,-5.774999969E-3,1.636249945E-2
2.637174836E0,-1.099999994E-3,-4.537499975E-3,1.031249948E-2
2.639681838E0,2.213750035E-2,-7.012499962E-3,1.787499990E-3
2.642187761E0,3.918749839E-2,-5.774999969E-3,-4.399999976E-3
2.644694528E0,3.561250120E-2,-3.299999982E-3,-5.637499969E-3
2.647202499E0,1.718750037E-2,2.887499984E-3,-5.637499969E-3
2.649709271E0,-4.674999975E-3,7.699999958E-3,-3.162499983E-3
2.652215180E0,-2.309999987E-2,1.498750038E-2,-5.637499969E-3
2.654722178E0,-2.433750033E-2,1.622499898E-2,-9.212499484E-3
2.657229879E0,-1.209999993E-2,1.141249947E-2,-1.292499993E-2
2.659736650E0,5.087499972E-3,4.124999978E-4,-1.044999994E-2
2.662242588E0,1.361249946E-2,-9.349999949E-3,-4.399999976E-3
2.664749356E0,8.662499487E-3,-1.429999992E-2,5.362499971E-3
2.667257279E0,-1.086249948E-2,-1.553750038E-2,1.636249945E-2
2.669764050E0,-2.543750033E-2,-9.349999949E-3,1.883750036E-2
2.672269973E0,-2.543750033E-2,-4.537499975E-3,1.512499992E-2
2.674776971E0,-8.387500420E-3,-8.249999955E-4,7.837500423E-3
2.677284663E0,1.842499897E-2,-2.062499989E-3,-1.924999990E-3
2.679791435E0,3.808749840E-2,-8.249999955E-4,-5.637499969E-3
2.682297358E0,3.808749840E-2,4.124999978E-4,-1.044999994E-2
2.684804356E0,2.089999989E-2,1.649999991E-3,-7.974999957E-3
2.687312028E0,1.374999993E-4,6.462499965E-3,-5.637499969E-3
2.689818799E0,-1.814999990E-2,1.498750038E-2,-4.399999976E-3
2.692324722E0,-2.186249942E-2,1.746249944E-2,-5.637499969E-3
2.694831755E0,-1.457499992E-2,1.264999993E-2,-7.974999957E-3
2.697339448E0,3.849999979E-3,1.649999991E-3,-7.974999957E-3
2.699846219E0,1.361249946E-2,-1.429999992E-2,-4.399999976E-3
2.702352123E0,7.424999960E-3,-1.911249943E-2,4.124999978E-3
2.704859121E0,-7.149999961E-3,-1.553750038E-2,1.278750040E-2
2.707366813E0,-2.433750033E-2,-8.112499490E-3,1.512499992E-2
2.709873580E0,-2.433750033E-2,-4.537499975E-3,1.402499992E-2
2.712379503E0,-1.209999993E-2,-2.062499989E-3,9.074999951E-3
2.714886535E0,1.237499993E-2,-4.537499975E-3,4.124999978E-3
2.717394227E0,3.189999983E-2,-8.112499490E-3,-3.162499983E-3
2.719900998E0,4.289999977E-2,-7.012499962E-3,-4.399999976E-3
2.722407152E0,2.708750032E-2,-2.062499989E-3,-4.399999976E-3
2.724913919E0,3.849999979E-3,7.699999958E-3,-4.399999976E-3
2.727421612E0,-1.814999990E-2,1.264999993E-2,-5.637499969E-3
2.729928383E0,-2.791249938E-2,1.622499898E-2,-9.212499484E-3
2.732434537E0,-2.062499896E-2,1.264999993E-2,-1.292499993E-2
2.734941304E0,-2.337499987E-3,3.987499978E-3,-1.416249946E-2
2.737448996E0,1.237499993E-2,-5.774999969E-3,-9.212499484E-3
2.739955766E0,9.899999946E-3,-1.058750041E-2,-1.924999990E-3
2.742461920E0,-4.674999975E-3,-1.429999992E-2,7.837500423E-3
2.744968688E0,-2.062499896E-2,-1.182499994E-2,1.759999990E-2
2.747476380E0,-2.667500079E-2,-5.774999969E-3,1.883750036E-2
2.749983151E0,-1.209999993E-2,-7.012499962E-3,1.636249945E-2
2.752489305E0,1.361249946E-2,-8.112499490E-3,7.837500423E-3
2.754996072E0,3.437500075E-2,-8.112499490E-3,1.787499990E-3
2.757503764E0,3.932499886E-2,-5.774999969E-3,-4.399999976E-3
2.760010556E0,2.461249940E-2,-2.062499989E-3,-6.874999963E-3
2.762516710E0,1.374999993E-3,6.462499965E-3,-5.637499969E-3
2.765023477E0,-1.814999990E-2,1.746249944E-2,-7.974999957E-3
2.767531169E0,-2.667500079E-2,1.993750036E-2,-9.212499484E-3
2.770037940E0,-1.938750036E-2,1.869999990E-2,-1.168750040E-2
2.772544094E0,-2.337499987E-3,5.224999972E-3,-1.168750040E-2
2.775050861E0,1.856249943E-2,-5.774999969E-3,-6.874999963E-3
2.777558554E0,1.856249943E-2,-1.677500084E-2,4.124999978E-3
2.780065402E0,6.324999966E-3,-1.553750038E-2,1.512499992E-2
2.782571479E0,-1.443750039E-2,-1.429999992E-2,2.007500082E-2
2.785078323E0,-2.667500079E-2,-7.012499962E-3,1.759999990E-2
2.787585938E0,-2.062499896E-2,-3.299999982E-3,1.154999994E-2
2.790092787E0,2.612499986E-3,-2.062499989E-3,1.787499990E-3
2.792598864E0,2.584999986E-2,-3.299999982E-3,-5.637499969E-3
2.795105712E0,3.561250120E-2,-8.249999955E-4,-1.044999994E-2
2.797613404E0,2.584999986E-2,-8.249999955E-4,-9.212499484E-3
2.800120146E0,6.324999966E-3,4.124999978E-4,-6.874999963E-3
2.802626223E0,-1.333750039E-2,8.937500417E-3,-4.399999976E-3
2.805132990E0,-2.062499896E-2,1.622499898E-2,-1.924999990E-3
2.807640683E0,-1.691249944E-2,1.869999990E-2,-7.974999957E-3
2.810147531E0,-1.099999994E-3,7.699999958E-3,-9.212499484E-3
2.812653608E0,1.608750038E-2,-3.299999982E-3,-6.874999963E-3
2.815160375E0,1.732499897E-2,-1.677500084E-2,5.499999970E-4
2.817668144E0,-1.099999994E-3,-1.801249944E-2,9.074999951E-3
2.820174915E0,-2.062499896E-2,-1.306249946E-2,1.512499992E-2
2.822680992E0,-2.914999984E-2,-4.537499975E-3,1.759999990E-2
2.825187837E0,-2.309999987E-2,-2.062499989E-3,1.154999994E-2
2.827695529E0,-4.674999975E-3,-4.537499975E-3,5.362499971E-3
2.830202300E0,2.089999989E-2,-7.012499962E-3,-3.162499983E-3
2.832708368E0,3.808749840E-2,-8.112499490E-3,-5.637499969E-3
2.835215135E0,3.684999794E-2,-3.299999982E-3,-5.637499969E-3
2.837722909E0,1.732499897E-2,2.749999985E-3,-6.874999963E-3
2.840229680E0,-4.674999975E-3,1.264999993E-2,-4.399999976E-3
2.842735757E0,-1.938750036E-2,1.622499898E-2,-7.974999957E-3
2.845242621E0,-1.691249944E-2,1.869999990E-2,-9.212499484E-3
2.847750313E0,-3.437499981E-3,1.017499994E-2,-1.168750040E-2
2.850257084E0,1.237499993E-2,-4.537499975E-3,-1.168750040E-2
2.852763247E0,1.484999992E-2,-1.306249946E-2,-4.399999976E-3
2.855270014E0,1.374999993E-4,-1.677500084E-2,5.362499971E-3
2.857777707E0,-1.938750036E-2,-1.306249946E-2,1.278750040E-2
2.860284478E0,-2.791249938E-2,-8.112499490E-3,1.402499992E-2
2.862790632E0,-2.186249942E-2,-2.062499989E-3,1.402499992E-2
2.865297399E0,1.374999993E-4,-4.537499975E-3,7.837500423E-3
2.867805091E0,2.708750032E-2,-4.537499975E-3,5.499999970E-4
2.870311863E0,4.042499885E-2,-8.112499490E-3,-3.162499983E-3
2.872818017E0,3.684999794E-2,-3.299999982E-3,-6.874999963E-3
2.875324784E0,1.361249946E-2,-8.249999955E-4,-4.399999976E-3
2.877832510E0,-1.086249948E-2,1.017499994E-2,-3.162499983E-3
2.880339281E0,-2.419999987E-2,1.869999990E-2,-5.637499969E-3
2.882845459E0,-2.667500079E-2,1.746249944E-2,-7.974999957E-3
2.885352226E0,-1.209999993E-2,1.017499994E-2,-1.292499993E-2
2.887859924E0,8.662499487E-3,-3.299999982E-3,-1.044999994E-2
2.890366695E0,1.732499897E-2,-9.349999949E-3,-5.637499969E-3
2.892872849E0,1.113750041E-2,-1.429999992E-2,6.599999964E-3
2.895379616E0,-8.387500420E-3,-1.182499994E-2,1.512499992E-2
2.897887308E0,-2.419999987E-2,-8.112499490E-3,1.883750036E-2
2.900394080E0,-2.667500079E-2,-5.774999969E-3,1.636249945E-2
2.902900233E0,-9.624999948E-3,-8.112499490E-3,1.031249948E-2
2.905407001E0,1.732499897E-2,-7.012499962E-3,3.024999984E-3
2.907914693E0,3.561250120E-2,-4.537499975E-3,-6.874999963E-3
2.910421695E0,3.189999983E-2,-8.249999955E-4,-9.212499484E-3
2.912927622E0,1.608750038E-2,6.462499965E-3,-1.044999994E-2
2.915434389E0,-5.912499968E-3,8.937500417E-3,-9.212499484E-3
2.917942073E0,-1.691249944E-2,1.622499898E-2,-5.637499969E-3
2.920449075E0,-1.691249944E-2,1.869999990E-2,-9.212499484E-3
2.922954988E0,-4.674999975E-3,1.498750038E-2,-9.212499484E-3
2.925461755E0,1.237499993E-2,4.124999978E-4,-7.974999957E-3
2.927969664E0,1.732499897E-2,-1.429999992E-2,-1.924999990E-3
2.930476435E0,7.562499959E-3,-2.034999989E-2,6.599999964E-3
2.932982372E0,-1.333750039E-2,-1.801249944E-2,1.402499992E-2
2.935489140E0,-2.667500079E-2,-9.349999949E-3,2.007500082E-2
2.937996832E0,-2.791249938E-2,-8.249999955E-4,1.402499992E-2
2.940503834E0,-1.209999993E-2,-2.062499989E-3,6.599999964E-3
2.943009757E0,1.113750041E-2,-3.299999982E-3,5.499999970E-4
2.945516524E0,3.313750029E-2,-4.537499975E-3,-5.637499969E-3
2.948024217E0,3.932499886E-2,-5.774999969E-3,-6.874999963E-3
2.950531219E0,2.461249940E-2,1.649999991E-3,-4.399999976E-3
2.953037142E0,5.087499972E-3,7.699999958E-3,-6.874999963E-4
2.955544140E0,-1.333750039E-2,1.374999993E-2,-3.162499983E-3
2.958051620E0,-2.062499896E-2,1.498750038E-2,-5.637499969E-3
2.960558622E0,-1.333750039E-2,1.141249947E-2,-7.974999957E-3
2.963064560E0,2.612499986E-3,2.749999985E-3,-1.044999994E-2
2.965571558E0,1.237499993E-2,-8.112499490E-3,-5.637499969E-3
2.968079246E0,6.324999966E-3,-1.429999992E-2,1.787499990E-3
2.970586017E0,-1.333750039E-2,-1.677500084E-2,1.154999994E-2
2.973091940E0,-2.914999984E-2,-8.112499490E-3,1.512499992E-2
2.975598957E0,-2.914999984E-2,-3.299999982E-3,1.402499992E-2
2.978106418E0,-9.624999948E-3,-8.249999955E-4,9.074999951E-3
2.980613420E0,1.732499897E-2,-2.062499989E-3,1.787499990E-3
2.983119344E0,3.932499886E-2,-5.774999969E-3,-1.924999990E-3
2.985626342E0,4.042499885E-2,-7.012499962E-3,-5.637499969E-3
2.988134034E0,2.337500080E-2,-2.062499989E-3,-5.637499969E-3
2.990640805E0,1.374999993E-4,5.224999972E-3,-5.637499969E-3
2.993146959E0,-2.062499896E-2,1.498750038E-2,-7.974999957E-3
2.995653726E0,-2.543750033E-2,2.364999987E-2,-7.974999957E-3
2.998161419E0,-1.567500085E-2,1.374999993E-2,-1.168750040E-2
3.000668185E0,3.849999979E-3,1.649999991E-3,-1.168750040E-2
3.003174339E0,1.608750038E-2,-1.182499994E-2,-6.874999963E-3
3.005681092E0,1.484999992E-2,-1.677500084E-2,1.787499990E-3
3.008188784E0,-1.099999994E-3,-1.553750038E-2,1.278750040E-2
3.010695540E0,-2.186249942E-2,-1.058750041E-2,1.759999990E-2
3.013201694E0,-2.914999984E-2,-7.012499962E-3,1.759999990E-2
3.015708432E0,-1.814999990E-2,-8.112499490E-3,1.402499992E-2
3.018216125E0,8.662499487E-3,-8.112499490E-3,4.124999978E-3
3.020722973E0,3.189999983E-2,-5.774999969E-3,-4.399999976E-3
3.023228819E0,4.042499885E-2,-3.299999982E-3,-7.974999957E-3
3.025735817E0,2.708750032E-2,4.124999978E-4,-5.637499969E-3
3.028243509E0,3.849999979E-3,6.462499965E-3,-4.399999976E-3
3.030750358E0,-1.567500085E-2,1.017499994E-2,-4.399999976E-3
3.033256435E0,-2.419999987E-2,1.498750038E-2,-7.974999957E-3
3.035763202E0,-1.443750039E-2,1.264999993E-2,-9.212499484E-3
3.038270894E0,1.374999993E-3,6.462499965E-3,-1.044999994E-2
3.040777742E0,1.484999992E-2,-3.299999982E-3,-9.212499484E-3
3.043283819E0,1.113750041E-2,-1.306249946E-2,-6.874999963E-4
3.045790586E0,-3.437499981E-3,-1.058750041E-2,7.837500423E-3
3.048298279E0,-2.186249942E-2,-1.306249946E-2,1.512499992E-2
3.050805112E0,-2.791249938E-2,-7.012499962E-3,1.512499992E-2
3.053311189E0,-1.938750036E-2,-4.537499975E-3,1.278750040E-2
3.055817956E0,2.612499986E-3,-3.299999982E-3,5.362499971E-3
3.058325667E0,2.584999986E-2,-7.012499962E-3,-6.874999963E-4
3.060832516E0,3.932499886E-2,-4.537499975E-3,-3.162499983E-3
3.063338592E0,3.313750029E-2,-8.249999955E-4,-6.874999963E-3
3.065845360E0,1.237499993E-2,2.749999985E-3,-5.637499969E-3
3.068353081E0,-9.624999948E-3,1.264999993E-2,-5.637499969E-3
3.070859929E0,-2.062499896E-2,1.622499898E-2,-6.874999963E-3
3.073366006E0,-1.691249944E-2,1.746249944E-2,-9.212499484E-3
3.075872773E0,-3.437499981E-3,6.462499965E-3,-1.168750040E-2
3.078380466E0,1.361249946E-2,-3.299999982E-3,-7.974999957E-3
3.080887314E0,1.608750038E-2,-1.553750038E-2,1.787499990E-3
3.083393391E0,1.374999993E-4,-2.034999989E-2,1.031249948E-2
3.085900158E0,-2.062499896E-2,-1.553750038E-2,1.759999990E-2
3.088407850E0,-3.038750030E-2,-7.012499962E-3,1.759999990E-2
3.090914698E0,-1.938750036E-2,-8.249999955E-4,1.512499992E-2
3.093420842E0,3.849999979E-3,-8.249999955E-4,6.599999964E-3
3.095927610E0,3.066249937E-2,-3.299999982E-3,1.787499990E-3
3.098435298E0,3.932499886E-2,-8.112499490E-3,-5.637499969E-3
3.100942069E0,3.066249937E-2,-5.774999969E-3,-7.974999957E-3
3.103448146E0,8.662499487E-3,1.649999991E-3,-6.874999963E-3
3.105954970E0,-1.086249948E-2,1.498750038E-2,-6.874999963E-3
3.108462586E0,-2.419999987E-2,2.241249941E-2,-7.974999957E-3
3.110969434E0,-2.186249942E-2,2.241249941E-2,-1.168750040E-2
3.113475511E0,-5.912499968E-3,8.937500417E-3,-1.168750040E-2
3.115982355E0,1.361249946E-2,-7.012499962E-3,-1.044999994E-2
3.118489970E0,1.608750038E-2,-1.677500084E-2,-1.924999990E-3
3.120996818E0,3.849999979E-3,-1.677500084E-2,1.031249948E-2
3.123502895E0,-1.567500085E-2,-1.182499994E-2,1.759999990E-2
3.126009739E0,-3.038750030E-2,-5.774999969E-3,2.131249942E-2
3.128517432E0,-2.543750033E-2,-2.062499989E-3,1.512499992E-2
3.131024203E0,-3.437499981E-3,-5.774999969E-3,6.599999964E-3
3.133530357E0,2.337500080E-2,-7.012499962E-3,-3.162499983E-3
3.136037124E0,4.166249931E-2,-7.012499962E-3,-9.212499484E-3
3.138544821E0,3.561250120E-2,1.649999991E-3,-9.212499484E-3
3.141051593E0,1.237499993E-2,2.749999985E-3,-6.874999963E-3
3.143557741E0,-1.086249948E-2,1.141249947E-2,-3.162499983E-3
3.146064509E0,-2.186249942E-2,1.746249944E-2,-5.637499969E-3
3.148572201E0,-1.814999990E-2,1.498750038E-2,-7.974999957E-3
3.151078972E0,-2.337499987E-3,1.017499994E-2,-9.212499484E-3
3.153585126E0,1.361249946E-2,-5.774999969E-3,-7.974999957E-3
3.156091893E0,1.966249943E-2,-1.429999992E-2,-1.924999990E-3
3.158599586E0,3.849999979E-3,-1.677500084E-2,6.599999964E-3
3.161106357E0,-1.691249944E-2,-1.182499994E-2,1.512499992E-2
3.163612511E0,-2.914999984E-2,-7.012499962E-3,1.883750036E-2
3.166119278E0,-2.667500079E-2,-2.062499989E-3,1.278750040E-2
3.168626970E0,-7.149999961E-3,-3.299999982E-3,6.599999964E-3
3.171133972E0,1.732499897E-2,-4.537499975E-3,-1.924999990E-3
3.173639895E0,3.684999794E-2,-4.537499975E-3,-5.637499969E-3
3.176146663E0,3.932499886E-2,-2.062499989E-3,-6.874999963E-3
3.178654351E0,2.089999989E-2,4.124999978E-4,-4.399999976E-3
3.181161353E0,-4.674999975E-3,7.699999958E-3,-6.874999963E-4
3.183667271E0,-2.062499896E-2,1.498750038E-2,-1.924999990E-3
3.186174038E0,-2.419999987E-2,1.622499898E-2,-6.874999963E-3
3.188681692E0,-9.624999948E-3,1.264999993E-2,-1.168750040E-2
3.191188694E0,6.324999966E-3,1.649999991E-3,-1.044999994E-2
3.193694588E0,1.237499993E-2,-8.112499490E-3,-6.874999963E-3
3.196201586E0,5.087499972E-3,-1.429999992E-2,3.024999984E-3
3.198709047E0,-1.443750039E-2,-1.677500084E-2,1.154999994E-2
3.201216049E0,-2.667500079E-2,-1.058750041E-2,1.636249945E-2
3.203721972E0,-2.309999987E-2,-5.774999969E-3,1.759999990E-2
3.206228970E0,-3.437499981E-3,-5.774999969E-3,1.154999994E-2
3.208736432E0,2.213750035E-2,-7.012499962E-3,5.362499971E-3
3.211243434E0,3.932499886E-2,-5.774999969E-3,-1.924999990E-3
3.213749357E0,3.932499886E-2,-7.012499962E-3,-4.399999976E-3
3.216256355E0,1.966249943E-2,-8.249999955E-4,-5.637499969E-3
3.218763817E0,-2.337499987E-3,8.937500417E-3,-7.974999957E-3
3.221270810E0,-2.309999987E-2,2.241249941E-2,-7.974999957E-3
3.223776733E0,-2.667500079E-2,2.117500082E-2,-1.168750040E-2
3.226283726E0,-1.567500085E-2,1.264999993E-2,-1.168750040E-2
3.228791187E0,6.324999966E-3,4.124999978E-4,-1.044999994E-2
3.231298184E0,1.842499897E-2,-1.429999992E-2,-3.162499983E-3
3.233804107E0,1.361249946E-2,-1.801249944E-2,6.599999964E-3
3.236311052E0,-3.437499981E-3,-1.801249944E-2,1.402499992E-2
3.238818745E0,-2.309999987E-2,-9.349999949E-3,1.759999990E-2
3.241325516E0,-3.038750030E-2,-3.299999982E-3,1.636249945E-2
3.243831439E0,-1.333750039E-2,-8.249999955E-4,9.074999951E-3
3.246338437E0,1.361249946E-2,-5.774999969E-3,1.787499990E-3
3.248846129E0,3.561250120E-2,-5.774999969E-3,-6.874999963E-3
3.251352900E0,3.684999794E-2,-5.774999969E-3,-9.212499484E-3
3.253858824E0,1.842499897E-2,4.124999978E-4,-7.974999957E-3
3.256365822E0,-4.674999975E-3,6.462499965E-3,-4.399999976E-3
3.258873514E0,-2.062499896E-2,1.374999993E-2,-4.399999976E-3
3.261380266E0,-2.062499896E-2,1.993750036E-2,-4.399999976E-3
3.263886189E0,-8.387500420E-3,1.374999993E-2,-6.874999963E-3
3.266393115E0,9.899999946E-3,4.124999978E-4,-1.044999994E-2
3.268900807E0,2.213750035E-2,-1.306249946E-2,-4.399999976E-3
3.271407555E0,1.361249946E-2,-1.801249944E-2,4.124999978E-3
3.273913478E0,-1.086249948E-2,-1.553750038E-2,1.278750040E-2
3.276420447E0,-3.038750030E-2,-8.112499490E-3,1.512499992E-2
3.278928139E0,-3.286249936E-2,-3.299999982E-3,1.512499992E-2
3.281434987E0,-1.938750036E-2,-3.299999982E-3,7.837500423E-3
3.283940833E0,7.424999960E-3,-5.774999969E-3,-6.874999963E-4
3.286447831E0,3.189999983E-2,-7.012499962E-3,-5.637499969E-3
3.288955524E0,4.042499885E-2,-3.299999982E-3,-9.212499484E-3
3.291462295E0,2.708750032E-2,1.649999991E-3,-7.974999957E-3
3.293968449E0,6.324999966E-3,8.937500417E-3,-3.162499983E-3
3.296475216E0,-1.333750039E-2,1.498750038E-2,-4.399999976E-3
3.298982908E0,-1.814999990E-2,1.622499898E-2,-5.637499969E-3
3.301489752E0,-1.209999993E-2,1.264999993E-2,-1.044999994E-2
3.303995828E0,5.087499972E-3,6.462499965E-3,-1.044999994E-2
3.306502605E0,1.361249946E-2,-7.012499962E-3,-7.974999957E-3
3.309010297E0,9.899999946E-3,-1.429999992E-2,-6.874999963E-4
3.311517035E0,-9.624999948E-3,-1.553750038E-2,9.074999951E-3
3.314023189E0,-2.667500079E-2,-1.429999992E-2,1.402499992E-2
3.316529965E0,-3.162499890E-2,-7.012499962E-3,1.512499992E-2
3.319037658E0,-1.814999990E-2,-5.774999969E-3,1.154999994E-2
3.321544429E0,9.899999946E-3,-7.012499962E-3,6.599999964E-3
3.324050583E0,3.437500075E-2,-8.112499490E-3,5.499999970E-4
3.326557350E0,4.289999977E-2,-4.537499975E-3,-3.162499983E-3
3.329065119E0,2.942499891E-2,-2.062499989E-3,-4.399999976E-3
3.331571890E0,7.424999960E-3,3.987499978E-3,-5.637499969E-3
3.334077967E0,-1.209999993E-2,1.017499994E-2,-5.637499969E-3
3.336584812E0,-2.433750033E-2,1.869999990E-2,-7.974999957E-3
3.339092504E0,-1.938750036E-2,1.993750036E-2,-1.168750040E-2
3.341599270E0,-2.337499987E-3,8.937500417E-3,-1.292499993E-2
3.344105347E0,1.484999992E-2,-3.299999982E-3,-1.044999994E-2
3.346612187E0,1.484999992E-2,-1.429999992E-2,-6.874999963E-4
3.349119880E0,-1.099999994E-3,-1.677500084E-2,9.074999951E-3
3.351626690E0,-2.062499896E-2,-1.429999992E-2,1.636249945E-2
3.354132767E0,-3.038750030E-2,-7.012499962E-3,1.759999990E-2
3.356639611E0,-2.309999987E-2,-2.062499989E-3,1.154999994E-2
3.359147245E0,3.849999979E-3,-2.062499989E-3,7.837500423E-3
3.361654093E0,3.066249937E-2,-3.299999982E-3,-1.924999990E-3
3.364160170E0,4.166249931E-2,-5.774999969E-3,-6.874999963E-3
3.366667014E0,3.189999983E-2,-3.299999982E-3,-9.212499484E-3
3.369174707E0,1.113750041E-2,3.987499978E-3,-7.974999957E-3
3.371681478E0,-1.209999993E-2,1.264999993E-2,-5.637499969E-3
3.374187555E0,-2.309999987E-2,1.869999990E-2,-5.637499969E-3
3.376694399E0,-1.938750036E-2,1.993750036E-2,-4.399999976E-3
3.379202091E0,-4.674999975E-3,6.462499965E-3,-7.974999957E-3
3.381708863E0,1.484999992E-2,-9.349999949E-3,-6.874999963E-3
3.384214955E0,1.608750038E-2,-1.911249943E-2,-6.874999963E-4
3.386721799E0,2.612499986E-3,-1.677500084E-2,7.837500423E-3
3.389229476E0,-1.691249944E-2,-1.058750041E-2,1.512499992E-2
3.391736247E0,-2.791249938E-2,-2.062499989E-3,1.636249945E-2
3.394242406E0,-2.309999987E-2,4.124999978E-4,1.278750040E-2
3.396749173E0,-4.674999975E-3,-4.537499975E-3,5.362499971E-3
3.399256895E0,2.089999989E-2,-9.349999949E-3,5.499999970E-4
3.401763666E0,3.684999794E-2,-8.112499490E-3,-6.874999963E-3
3.404269820E0,3.437500075E-2,-2.062499989E-3,-6.874999963E-3
3.406776587E0,1.484999992E-2,6.462499965E-3,-4.399999976E-3
3.409284279E0,-7.149999961E-3,1.374999993E-2,-5.637499969E-3
3.411791051E0,-1.814999990E-2,1.746249944E-2,-4.399999976E-3
3.414297204E0,-1.691249944E-2,1.498750038E-2,-9.212499484E-3
3.416803972E0,-2.337499987E-3,6.462499965E-3,-1.416249946E-2
3.419311664E0,9.899999946E-3,-2.062499989E-3,-9.212499484E-3
3.421818666E0,1.113750041E-2,-8.112499490E-3,-5.637499969E-3
3.424324608E0,-2.337499987E-3,-1.429999992E-2,7.837500423E-3
3.426831375E0,-2.433750033E-2,-1.306249946E-2,1.402499992E-2
3.429339131E0,-3.519999981E-2,-9.349999949E-3,1.759999990E-2
3.431846133E0,-2.667500079E-2,-5.774999969E-3,1.278750040E-2
3.434352075E0,-2.337499987E-3,-5.774999969E-3,7.837500423E-3
3.436858842E0,2.832499892E-2,-2.062499989E-3,1.787499990E-3
3.439366534E0,4.289999977E-2,-3.299999982E-3,-4.399999976E-3
3.441873564E0,3.932499886E-2,-2.062499989E-3,-5.637499969E-3
3.444379487E0,1.608750038E-2,4.124999978E-4,-5.637499969E-3
3.446886485E0,-7.149999961E-3,6.462499965E-3,-3.162499983E-3
3.449393947E0,-2.186249942E-2,1.622499898E-2,-5.637499969E-3
3.451900949E0,-2.309999987E-2,1.869999990E-2,-1.168750040E-2
3.454406872E0,-1.209999993E-2,1.017499994E-2,-1.292499993E-2
3.456913870E0,3.849999979E-3,-2.062499989E-3,-1.168750040E-2
3.459421332E0,1.361249946E-2,-1.058750041E-2,-3.162499983E-3
3.461928334E0,7.424999960E-3,-1.677500084E-2,5.362499971E-3
3.464434257E0,-9.624999948E-3,-1.306249946E-2,1.402499992E-2
3.466941255E0,-2.186249942E-2,-1.058750041E-2,1.759999990E-2
3.469448716E0,-2.433750033E-2,-4.537499975E-3,1.512499992E-2
3.471955727E0,-9.624999948E-3,-4.537499975E-3,9.074999951E-3
3.474461650E0,1.732499897E-2,-4.537499975E-3,1.787499990E-3
3.476968428E0,3.684999794E-2,-2.062499989E-3,-4.399999976E-3
3.479476351E0,3.684999794E-2,-3.299999982E-3,-7.974999957E-3
3.481983117E0,2.089999989E-2,4.124999978E-4,-6.874999963E-3
3.484489271E0,-2.337499987E-3,6.462499965E-3,-5.637499969E-3
3.486996043E0,-2.062499896E-2,1.622499898E-2,-4.399999976E-3
3.489503735E0,-2.791249938E-2,1.869999990E-2,-4.399999976E-3
3.492010506E0,-1.443750039E-2,1.498750038E-2,-9.212499484E-3
3.494516660E0,3.849999979E-3,1.649999991E-3,-7.974999957E-3
3.497023428E0,1.608750038E-2,-9.349999949E-3,-4.399999976E-3
3.499531120E0,9.899999946E-3,-1.306249946E-2,3.024999984E-3
3.502037891E0,-7.149999961E-3,-1.306249946E-2,1.278750040E-2
3.504544045E0,-2.433750033E-2,-5.774999969E-3,1.512499992E-2
3.507050812E0,-2.791249938E-2,-2.062499989E-3,1.759999990E-2
3.509558505E0,-1.333750039E-2,-4.537499975E-3,1.154999994E-2
3.512065281E0,1.113750041E-2,-8.112499490E-3,5.362499971E-3
3.514571435E0,3.066249937E-2,-8.112499490E-3,-6.874999963E-4
3.517078202E0,3.808749840E-2,-3.299999982E-3,-7.974999957E-3
3.519585879E0,2.832499892E-2,3.987499978E-3,-5.637499969E-3
3.522092727E0,5.087499972E-3,1.017499994E-2,-6.874999963E-3
3.524598799E0,-1.443750039E-2,1.869999990E-2,-4.399999976E-3
3.527105566E0,-2.062499896E-2,1.869999990E-2,-9.212499484E-3
3.529613250E0,-1.443750039E-2,1.264999993E-2,-1.168750040E-2
3.532120098E0,3.849999979E-3,2.749999985E-3,-1.168750040E-2
3.534626175E0,1.237499993E-2,-8.112499490E-3,-7.974999957E-3
3.537132942E0,8.662499487E-3,-1.182499994E-2,3.024999984E-3
3.539640634E0,-7.149999961E-3,-1.306249946E-2,1.154999994E-2
3.542147483E0,-2.309999987E-2,-1.182499994E-2,1.759999990E-2
3.544653560E0,-2.667500079E-2,-8.112499490E-3,1.759999990E-2
3.547160327E0,-1.209999993E-2,-4.537499975E-3,1.031249948E-2
3.549668019E0,1.361249946E-2,-4.537499975E-3,4.124999978E-3
3.552174867E0,3.437500075E-2,-3.299999982E-3,-1.924999990E-3
3.554681365E0,4.042499885E-2,-4.537499975E-3,-5.637499969E-3
3.557187976E0,2.337500080E-2,4.124999978E-4,-4.399999976E-3
3.559695418E0,1.374999993E-3,6.462499965E-3,-1.924999990E-3
3.562202266E0,-1.938750036E-2,1.264999993E-2,-5.637499969E-3
3.564708353E0,-2.433750033E-2,1.746249944E-2,-1.044999994E-2
3.567215197E0,-1.814999990E-2,1.498750038E-2,-1.168750040E-2
3.569722826E0,1.374999993E-3,7.699999958E-3,-1.168750040E-2
3.572229675E0,1.484999992E-2,-5.774999969E-3,-5.637499969E-3
3.574735766E0,1.608750038E-2,-1.306249946E-2,3.024999984E-3
3.577242611E0,-1.099999994E-3,-1.553750038E-2,1.278750040E-2
3.579750226E0,-1.938750036E-2,-1.553750038E-2,1.883750036E-2
3.582257074E0,-3.038750030E-2,-1.182499994E-2,1.636249945E-2
3.584763151E0,-2.062499896E-2,-4.537499975E-3,1.278750040E-2
3.587269995E0,3.849999979E-3,-8.249999955E-4,3.024999984E-3
3.589777611E0,2.942499891E-2,1.649999991E-3,-3.162499983E-3
3.592284459E0,4.166249931E-2,1.649999991E-3,-9.212499484E-3
3.594790613E0,3.066249937E-2,-2.062499989E-3,-1.292499993E-2
3.597297380E0,8.662499487E-3,1.649999991E-3,-7.974999957E-3
3.599804994E0,-1.209999993E-2,1.141249947E-2,-6.874999963E-3
3.602311842E0,-2.309999987E-2,1.993750036E-2,-4.399999976E-3
3.604817929E0,-1.814999990E-2,1.869999990E-2,-5.637499969E-3
3.607324774E0,-2.337499987E-3,8.937500417E-3,-7.974999957E-3
3.609832456E0,1.361249946E-2,-8.112499490E-3,-6.874999963E-3
3.612339227E0,1.608750038E-2,-1.911249943E-2,-1.924999990E-3
3.614845304E0,3.849999979E-3,-1.911249943E-2,6.599999964E-3
3.617352153E0,-1.814999990E-2,-1.058750041E-2,1.278750040E-2
3.619859845E0,-2.667500079E-2,-2.062499989E-3,1.512499992E-2
3.622366847E0,-2.433750033E-2,4.124999978E-4,1.031249948E-2
3.624872694E0,-2.337499987E-3,-3.299999982E-3,5.362499971E-3
3.627379538E0,2.337500080E-2,-9.349999949E-3,-6.874999963E-4
3.629887230E0,3.808749840E-2,-9.349999949E-3,-4.399999976E-3
3.632394001E0,3.313750029E-2,-4.537499975E-3,-3.162499983E-3
3.634900078E0,1.361249946E-2,5.224999972E-3,-4.399999976E-3
3.637406922E0,-8.387500420E-3,1.141249947E-2,-3.162499983E-3
3.639914615E0,-2.309999987E-2,1.746249944E-2,-4.399999976E-3
3.642421617E0,-2.062499896E-2,1.746249944E-2,-9.212499484E-3
3.644927463E0,-5.912499968E-3,7.699999958E-3,-1.168750040E-2
3.647434331E0,1.361249946E-2,-3.299999982E-3,-1.292499993E-2
3.649942023E0,1.966249943E-2,-1.182499994E-2,-5.637499969E-3
3.652448805E0,3.849999979E-3,-1.306249946E-2,4.124999978E-3
3.654954958E0,-2.062499896E-2,-1.306249946E-2,1.402499992E-2
3.657461956E0,-3.162499890E-2,-5.774999969E-3,1.759999990E-2
3.659969404E0,-2.309999987E-2,-3.299999982E-3,1.512499992E-2
3.662476406E0,-1.099999994E-3,-4.537499975E-3,1.031249948E-2
3.664982329E0,2.584999986E-2,-5.774999969E-3,5.499999970E-4
3.667489096E0,4.042499885E-2,-4.537499975E-3,-5.637499969E-3
3.669996789E0,3.684999794E-2,-2.062499989E-3,-6.874999963E-3
3.672503560E0,1.608750038E-2,2.749999985E-3,-7.974999957E-3
3.675009714E0,-7.149999961E-3,1.141249947E-2,-5.637499969E-3
3.677516712E0,-2.309999987E-2,1.869999990E-2,-7.974999957E-3
3.680024173E0,-2.309999987E-2,1.993750036E-2,-9.212499484E-3
3.682531175E0,-1.086249948E-2,1.017499994E-2,-1.044999994E-2
3.685037098E0,7.424999960E-3,-8.249999955E-4,-9.212499484E-3
3.687544110E0,1.732499897E-2,-1.182499994E-2,-3.162499983E-3
3.690051803E0,8.662499487E-3,-1.429999992E-2,7.837500423E-3
3.692558574E0,-9.624999948E-3,-1.429999992E-2,1.883750036E-2
3.695064497E0,-2.543750033E-2,-1.182499994E-2,1.883750036E-2
3.697571495E0,-2.433750033E-2,-4.537499975E-3,1.402499992E-2
3.700079201E0,-8.387500420E-3,-4.537499975E-3,7.837500423E-3
3.702585973E0,1.732499897E-2,-4.537499975E-3,5.499999970E-4
3.705091896E0,3.437500075E-2,-4.537499975E-3,-5.637499969E-3
3.707598894E0,3.313750029E-2,-8.249999955E-4,-7.974999957E-3
3.710106586E0,1.608750038E-2,4.124999978E-4,-5.637499969E-3
3.712613357E0,-4.674999975E-3,7.699999958E-3,-6.874999963E-3
3.715119280E0,-1.691249944E-2,1.374999993E-2,-5.637499969E-3
3.717626278E0,-1.938750036E-2,1.993750036E-2,-5.637499969E-3
3.720133971E0,-8.387500420E-3,1.374999993E-2,-7.974999957E-3
3.722640742E0,1.113750041E-2,2.749999985E-3,-7.974999957E-3
3.725146670E0,1.966249943E-2,-1.182499994E-2,-3.162499983E-3
3.727653668E0,8.662499487E-3,-1.911249943E-2,5.362499971E-3
3.730161346E0,-1.333750039E-2,-1.677500084E-2,1.154999994E-2
3.732668118E0,-2.914999984E-2,-8.112499490E-3,1.402499992E-2
3.735174031E0,-2.914999984E-2,4.124999978E-4,1.278750040E-2
3.737681029E0,-1.209999993E-2,-8.249999955E-4,6.599999964E-3
3.740188692E0,1.361249946E-2,-3.299999982E-3,5.499999970E-4
3.742695463E0,3.437500075E-2,-5.774999969E-3,-6.874999963E-3
3.745201617E0,3.808749840E-2,-4.537499975E-3,-6.874999963E-3
3.747708384E0,2.461249940E-2,1.649999991E-3,-6.874999963E-3
3.750216077E0,2.612499986E-3,6.462499965E-3,-4.399999976E-3
3.752722848E0,-1.567500085E-2,1.622499898E-2,-1.924999990E-3
3.755229002E0,-2.186249942E-2,1.746249944E-2,-4.399999976E-3
3.757735769E0,-1.209999993E-2,1.264999993E-2,-7.974999957E-3
3.760243461E0,5.087499972E-3,4.124999978E-4,-1.168750040E-2
3.762750232E0,1.608750038E-2,-8.112499490E-3,-7.974999957E-3
3.765256386E0,9.899999946E-3,-1.553750038E-2,1.787499990E-3
3.767763154E0,-7.149999961E-3,-1.306249946E-2,9.074999951E-3
3.770270836E0,-2.543750033E-2,-8.112499490E-3,1.636249945E-2
3.772777607E0,-3.038750030E-2,-4.537499975E-3,1.636249945E-2
3.775283756E0,-1.333750039E-2,-3.299999982E-3,1.154999994E-2
3.777790523E0,1.361249946E-2,-9.349999949E-3,4.124999978E-3
3.780298215E0,3.561250120E-2,-8.112499490E-3,-3.162499983E-3
3.782805064E0,3.808749840E-2,-5.774999969E-3,-4.399999976E-3
3.785311141E0,2.584999986E-2,1.649999991E-3,-5.637499969E-3
3.787817985E0,1.374999993E-3,6.462499965E-3,-5.637499969E-3
3.790325600E0,-1.938750036E-2,1.746249944E-2,-7.974999957E-3
3.792832448E0,-2.543750033E-2,2.117500082E-2,-9.212499484E-3
3.795338525E0,-1.938750036E-2,1.498750038E-2,-1.416249946E-2
3.797845369E0,1.374999993E-3,3.987499978E-3,-1.292499993E-2
3.800352985E0,1.608750038E-2,-5.774999969E-3,-7.974999957E-3
3.802859833E0,1.484999992E-2,-1.058750041E-2,-6.874999963E-4
3.805365901E0,-3.437499981E-3,-1.306249946E-2,1.402499992E-2
3.807872745E0,-2.062499896E-2,-1.058750041E-2,1.759999990E-2
3.810380345E0,-2.791249938E-2,-1.058750041E-2,1.883750036E-2
3.812887194E0,-1.938750036E-2,-7.012499962E-3,1.278750040E-2
3.815393265E0,5.087499972E-3,-5.774999969E-3,5.362499971E-3
3.817900110E0,2.942499891E-2,4.124999978E-4,-6.874999963E-4
3.820407740E0,4.166249931E-2,-8.249999955E-4,-7.974999957E-3
3.822914588E0,2.942499891E-2,1.649999991E-3,-6.874999963E-3
3.825420665E0,7.562499959E-3,5.224999972E-3,-6.874999963E-3
3.827927509E0,-1.209999993E-2,8.937500417E-3,-5.637499969E-3
3.830435202E0,-2.062499896E-2,1.746249944E-2,-4.399999976E-3
3.832941973E0,-1.691249944E-2,1.622499898E-2,-6.874999963E-3
3.835448127E0,1.374999993E-3,8.937500417E-3,-7.974999957E-3
3.837954894E0,1.237499993E-2,-7.012499962E-3,-5.637499969E-3
3.840462586E0,1.237499993E-2,-1.429999992E-2,1.787499990E-3
3.842969357E0,1.374999993E-4,-1.911249943E-2,9.074999951E-3
3.845475520E0,-1.814999990E-2,-1.058750041E-2,1.402499992E-2
3.847982288E0,-2.667500079E-2,-3.299999982E-3,1.636249945E-2
3.850489980E0,-2.062499896E-2,1.649999991E-3,1.154999994E-2
3.852996751E0,3.849999979E-3,-2.062499989E-3,5.362499971E-3
3.855502891E0,2.584999986E-2,-3.299999982E-3,-3.162499983E-3
3.858009658E0,3.684999794E-2,-4.537499975E-3,-4.399999976E-3
3.860517341E0,2.832499892E-2,-5.774999969E-3,-4.399999976E-3
3.863024112E0,9.899999946E-3,2.749999985E-3,-4.399999976E-3
3.865530266E0,-1.209999993E-2,1.141249947E-2,-3.162499983E-3
3.868037033E0,-2.062499896E-2,2.117500082E-2,-6.874999963E-3
3.870544725E0,-1.567500085E-2,1.869999990E-2,-9.212499484E-3
3.873051727E0,1.374999993E-4,1.141249947E-2,-1.168750040E-2
3.875557650E0,1.237499993E-2,-4.537499975E-3,-7.974999957E-3
3.878064417E0,1.484999992E-2,-1.429999992E-2,-1.924999990E-3
3.880572110E0,-2.337499987E-3,-1.677500084E-2,9.074999951E-3
3.883079112E0,-2.186249942E-2,-1.306249946E-2,1.636249945E-2
3.885585011E0,-3.409999982E-2,-5.774999969E-3,1.759999990E-2
3.888091778E0,-2.543750033E-2,-2.062499989E-3,1.512499992E-2
3.890599489E0,1.374999993E-3,-2.062499989E-3,6.599999964E-3
3.893106491E0,2.942499891E-2,-7.012499962E-3,-6.874999963E-4
3.895612430E0,4.537500069E-2,-7.012499962E-3,-6.874999963E-3
3.898119197E0,3.684999794E-2,-2.062499989E-3,-7.974999957E-3
3.900626889E0,1.484999992E-2,5.224999972E-3,-7.974999957E-3
3.903133920E0,-9.624999948E-3,1.264999993E-2,-7.974999957E-3
3.905639843E0,-2.309999987E-2,2.364999987E-2,-7.974999957E-3
3.908146841E0,-1.938750036E-2,1.993750036E-2,-1.044999994E-2
3.910654303E0,-7.149999961E-3,6.462499965E-3,-1.292499993E-2
3.913161305E0,9.899999946E-3,-4.537499975E-3,-9.212499484E-3
3.915667228E0,1.484999992E-2,-1.182499994E-2,-3.162499983E-3
3.918174226E0,5.087499972E-3,-1.553750038E-2,6.599999964E-3
3.920681687E0,-1.333750039E-2,-1.306249946E-2,1.512499992E-2
3.923188689E0,-2.791249938E-2,-8.112499490E-3,1.759999990E-2
3.925694631E0,-2.543750033E-2,-5.774999969E-3,1.402499992E-2
3.928201629E0,-7.149999961E-3,-3.299999982E-3,5.362499971E-3
3.930709322E0,2.461249940E-2,-7.012499962E-3,-6.874999963E-4
3.933216093E0,3.808749840E-2,-3.299999982E-3,-6.874999963E-3
3.935722247E0,3.437500075E-2,-2.062499989E-3,-6.874999963E-3
3.938229014E0,1.237499993E-2,1.649999991E-3,-5.637499969E-3
3.940736663E0,-8.387500420E-3,6.462499965E-3,-4.399999976E-3
3.943243435E0,-2.309999987E-2,1.374999993E-2,-3.162499983E-3
3.945749358E0,-2.309999987E-2,1.498750038E-2,-6.874999963E-3
3.948256356E0,-1.086249948E-2,8.937500417E-3,-7.974999957E-3
3.950764048E0,9.899999946E-3,1.649999991E-3,-7.974999957E-3
3.953270819E0,1.732499897E-2,-1.058750041E-2,-3.162499983E-3
3.955776742E0,8.662499487E-3,-1.429999992E-2,5.362499971E-3
3.958283740E0,-9.624999948E-3,-1.306249946E-2,1.278750040E-2
3.960791433E0,-2.543750033E-2,-8.112499490E-3,1.636249945E-2
3.963298281E0,-2.419999987E-2,-3.299999982E-3,1.154999994E-2
3.965804127E0,-8.387500420E-3,-2.062499989E-3,6.599999964E-3
3.968311125E0,1.484999992E-2,-2.062499989E-3,-6.874999963E-4
3.970818812E0,3.313750029E-2,-2.062499989E-3,-4.399999976E-3
3.973325660E0,3.684999794E-2,-8.249999955E-4,-9.212499484E-3
3.975831756E0,2.337500080E-2,4.124999978E-4,-7.974999957E-3
3.978338524E0,1.374999993E-4,8.937500417E-3,-5.637499969E-3
3.980846230E0,-1.814999990E-2,1.498750038E-2,-5.637499969E-3
3.983353078E0,-2.186249942E-2,2.117500082E-2,-7.974999957E-3
3.985858924E0,-1.443750039E-2,1.374999993E-2,-9.212499484E-3
3.988365999E0,2.612499986E-3,2.749999985E-3,-1.168750040E-2
3.990873615E0,1.237499993E-2,-8.112499490E-3,-5.637499969E-3
3.993380386E0,6.324999966E-3,-1.677500084E-2,1.787499990E-3
3.995886540E0,-8.387500420E-3,-1.677500084E-2,1.154999994E-2
3.998393384E0,-2.419999987E-2,-8.112499490E-3,1.512499992E-2
4.000900999E0,-2.543750033E-2,-2.062499989E-3,1.512499992E-2
4.003407847E0,-8.387500420E-3,-2.062499989E-3,1.031249948E-2
4.005913915E0,1.732499897E-2,-5.774999969E-3,4.124999978E-3
4.008420759E0,3.437500075E-2,-1.058750041E-2,5.499999970E-4
4.010928375E0,3.437500075E-2,-7.012499962E-3,-3.162499983E-3
4.013435223E0,2.089999989E-2,-3.299999982E-3,-3.162499983E-3
4.015941319E0,1.374999993E-4,5.224999972E-3,-3.162499983E-3
4.018448163E0,-1.938750036E-2,1.622499898E-2,-5.637499969E-3
4.020955850E0,-2.543750033E-2,1.993750036E-2,-9.212499484E-3
4.023462622E0,-1.691249944E-2,1.498750038E-2,-1.416249946E-2
4.025968699E0,3.849999979E-3,3.987499978E-3,-1.292499993E-2
4.028475543E0,1.732499897E-2,-5.774999969E-3,-9.212499484E-3
4.030983235E0,1.608750038E-2,-1.306249946E-2,1.787499990E-3
4.033490006E0,-3.437499981E-3,-1.182499994E-2,1.402499992E-2
4.035996083E0,-2.543750033E-2,-1.058750041E-2,1.759999990E-2
4.038502927E0,-3.162499890E-2,-5.774999969E-3,1.883750036E-2
4.041010620E0,-1.938750036E-2,-3.299999982E-3,1.154999994E-2
4.043517391E0,6.324999966E-3,-4.537499975E-3,4.124999978E-3
4.046023459E0,3.313750029E-2,-8.249999955E-4,-6.874999963E-3
4.048530303E0,4.042499885E-2,1.649999991E-3,-1.044999994E-2
4.051037975E0,2.942499891E-2,1.649999991E-3,-9.212499484E-3
4.053544747E0,3.849999979E-3,5.224999972E-3,-6.874999963E-3
4.056050824E0,-1.443750039E-2,1.264999993E-2,-3.162499983E-3
4.058557668E0,-2.309999987E-2,1.498750038E-2,-5.637499969E-3
4.061065360E0,-1.567500085E-2,1.264999993E-2,-7.974999957E-3
4.063572136E0,1.374999993E-3,5.224999972E-3,-7.974999957E-3
4.066078290E0,1.361249946E-2,-5.774999969E-3,-6.874999963E-3
4.068585057E0,1.237499993E-2,-1.553750038E-2,5.499999970E-4
4.071092750E0,-1.099999994E-3,-1.429999992E-2,1.154999994E-2
4.073599521E0,-1.814999990E-2,-9.349999949E-3,2.007500082E-2
4.076105675E0,-2.667500079E-2,-5.774999969E-3,1.636249945E-2
4.078612442E0,-1.814999990E-2,-4.537499975E-3,1.154999994E-2
4.081120134E0,2.612499986E-3,-4.537499975E-3,4.124999978E-3
4.083626906E0,2.461249940E-2,-4.537499975E-3,-1.924999990E-3
4.086133059E0,3.684999794E-2,-5.774999969E-3,-4.399999976E-3
4.088639803E0,3.066249937E-2,4.124999978E-4,-5.637499969E-3
4.091147495E0,9.899999946E-3,3.987499978E-3,-3.162499983E-3
4.093654280E0,-1.333750039E-2,1.017499994E-2,-5.637499969E-3
4.096160434E0,-2.309999987E-2,1.374999993E-2,-9.212499484E-3
4.098667201E0,-2.186249942E-2,1.374999993E-2,-1.044999994E-2
4.101175139E0,-4.674999975E-3,1.141249947E-2,-1.416249946E-2
4.103681911E0,9.899999946E-3,1.649999991E-3,-9.212499484E-3
4.106187834E0,1.361249946E-2,-8.112499490E-3,-4.399999976E-3
4.108694610E0,1.374999993E-3,-1.677500084E-2,5.362499971E-3
4.111202302E0,-1.814999990E-2,-1.553750038E-2,1.402499992E-2
4.113709304E0,-2.543750033E-2,-9.349999949E-3,1.636249945E-2
4.116215227E0,-1.938750036E-2,-2.062499989E-3,1.512499992E-2
4.118721995E0,1.374999993E-4,-2.062499989E-3,7.837500423E-3
4.121229687E0,2.708750032E-2,-3.299999982E-3,3.024999984E-3
4.123736689E0,3.932499886E-2,-5.774999969E-3,-4.399999976E-3
4.126242612E0,3.066249937E-2,-5.774999969E-3,-5.637499969E-3
4.128749379E0,1.237499993E-2,4.124999978E-4,-6.874999963E-3
4.131257081E0,-8.387500420E-3,1.017499994E-2,-5.637499969E-3
4.133764083E0,-2.309999987E-2,2.241249941E-2,-6.874999963E-3
4.136270021E0,-2.309999987E-2,2.241249941E-2,-1.044999994E-2
4.138777019E0,-8.387500420E-3,1.141249947E-2,-9.212499484E-3
4.141284678E0,1.113750041E-2,-7.012499962E-3,-7.974999957E-3
4.143791449E0,1.966249943E-2,-1.801249944E-2,-6.874999963E-4
4.146297603E0,7.562499959E-3,-1.911249943E-2,1.031249948E-2
4.148804360E0,-1.209999993E-2,-1.306249946E-2,1.759999990E-2
4.151312053E0,-2.543750033E-2,-5.774999969E-3,2.007500082E-2
4.153818819E0,-2.309999987E-2,-8.249999955E-4,1.402499992E-2
4.156324742E0,-3.437499981E-3,-2.062499989E-3,6.599999964E-3
4.158831740E0,2.461249940E-2,-3.299999982E-3,-4.399999976E-3
4.161339432E0,3.808749840E-2,-4.537499975E-3,-7.974999957E-3
4.163846203E0,3.313750029E-2,-3.299999982E-3,-7.974999957E-3
4.166352357E0,1.113750041E-2,2.749999985E-3,-5.637499969E-3
4.168859124E0,-1.333750039E-2,1.017499994E-2,-3.162499983E-3
4.171366817E0,-2.419999987E-2,1.869999990E-2,-4.399999976E-3
4.173873588E0,-1.938750036E-2,1.869999990E-2,-5.637499969E-3
4.176379742E0,-5.912499968E-3,8.937500417E-3,-6.874999963E-3
4.178886529E0,1.484999992E-2,-2.062499989E-3,-9.212499484E-3
4.181394221E0,1.966249943E-2,-1.306249946E-2,-1.924999990E-3
4.183901065E0,7.562499959E-3,-1.677500084E-2,6.599999964E-3
4.186407142E0,-1.443750039E-2,-1.306249946E-2,1.636249945E-2
4.188913924E0,-3.038750030E-2,-5.774999969E-3,1.636249945E-2
4.191421616E0,-2.914999984E-2,-5.774999969E-3,1.512499992E-2
4.193928464E0,-8.387500420E-3,-7.012499962E-3,6.599999964E-3
4.196434541E0,1.732499897E-2,-7.012499962E-3,-1.924999990E-3
4.198941308E0,3.684999794E-2,-2.062499989E-3,-6.874999963E-3
4.201449001E0,3.684999794E-2,-8.249999955E-4,-9.212499484E-3
4.203955849E0,2.089999989E-2,3.987499978E-3,-5.637499969E-3
4.206461926E0,-1.099999994E-3,1.141249947E-2,-5.637499969E-3
4.208968693E0,-1.691249944E-2,1.374999993E-2,-3.162499983E-3
4.211476404E0,-1.938750036E-2,1.498750038E-2,-7.974999957E-3
4.213983253E0,-9.624999948E-3,1.141249947E-2,-1.292499993E-2
4.216489329E0,7.424999960E-3,1.649999991E-3,-9.212499484E-3
4.218996092E0,1.361249946E-2,-9.349999949E-3,-3.162499983E-3
4.221503784E0,4.949999973E-3,-1.306249946E-2,6.599999964E-3
4.224010618E0,-1.209999993E-2,-1.553750038E-2,1.402499992E-2
4.226516695E0,-2.557500079E-2,-1.058750041E-2,1.512499992E-2
4.229023519E0,-2.309999987E-2,-5.774999969E-3,1.402499992E-2
4.231531135E0,-7.149999961E-3,4.124999978E-4,7.837500423E-3
4.234037983E0,1.842499897E-2,-3.299999982E-3,3.024999984E-3
4.236544104E0,3.671250120E-2,-3.299999982E-3,-4.399999976E-3
4.239050948E0,3.437500075E-2,-2.062499989E-3,-5.637499969E-3
4.241558563E0,1.842499897E-2,-4.537499975E-3,-4.399999976E-3
4.244065411E0,-3.574999981E-3,2.887499984E-3,-5.637499969E-3
4.246571488E0,-2.186249942E-2,1.264999993E-2,-4.399999976E-3
4.249078333E0,-2.791249938E-2,2.117500082E-2,-6.737499963E-3
4.251586025E0,-1.814999990E-2,1.622499898E-2,-9.212499484E-3
4.254092796E0,2.612499986E-3,5.224999972E-3,-1.044999994E-2
4.256598873E0,1.842499897E-2,-9.349999949E-3,-6.737499963E-3
4.259105717E0,1.594999991E-2,-1.553750038E-2,3.024999984E-3
4.261613389E0,-2.337499987E-3,-1.306249946E-2,1.278750040E-2
4.264120161E0,-2.062499896E-2,-1.058750041E-2,1.883750036E-2
4.266626238E0,-2.681249939E-2,-5.774999969E-3,1.512499992E-2
4.269133082E0,-1.814999990E-2,-3.299999982E-3,1.278750040E-2
4.271640789E0,4.949999973E-3,-2.062499989E-3,4.262499977E-3
4.274147560E0,3.066249937E-2,-4.537499975E-3,-5.637499969E-3
4.276653699E0,4.042499885E-2,-4.537499975E-3,-9.212499484E-3
4.279160466E0,2.694999985E-2,1.649999991E-3,-9.212499484E-3
4.281668159E0,3.849999979E-3,1.017499994E-2,-5.637499969E-3
4.284174930E0,-1.333750039E-2,1.388750039E-2,-6.737499963E-3
4.286681007E0,-2.062499896E-2,1.993750036E-2,-5.637499969E-3
4.289187851E0,-1.086249948E-2,1.498750038E-2,-9.212499484E-3
4.291695543E0,3.849999979E-3,2.887499984E-3,-9.212499484E-3
4.294202315E0,1.471249945E-2,-1.182499994E-2,-4.399999976E-3
4.296708392E0,1.113750041E-2,-1.677500084E-2,1.787499990E-3
4.299215236E0,-4.812499974E-3,-1.553750038E-2,1.031249948E-2
4.301722914E0,-2.433750033E-2,-7.012499962E-3,1.512499992E-2
4.304229685E0,-2.914999984E-2,-8.249999955E-4,1.512499992E-2
4.306735844E0,-1.814999990E-2,-2.062499989E-3,9.074999951E-3
4.309242842E0,4.949999973E-3,-7.012499962E-3,1.787499990E-3
4.311750304E0,3.189999983E-2,-8.112499490E-3,-1.924999990E-3
4.314257315E0,3.918749839E-2,-4.537499975E-3,-4.399999976E-3
4.316763238E0,2.942499891E-2,-8.249999955E-4,-3.162499983E-3
4.319270236E0,6.187499966E-3,5.224999972E-3,-6.874999963E-4
4.321777716E0,-1.209999993E-2,1.141249947E-2,-1.924999990E-3
4.324284718E0,-2.186249942E-2,1.264999993E-2,-4.399999976E-3
4.326790641E0,-1.581249945E-2,1.264999993E-2,-1.168750040E-2
4.329297409E0,-2.337499987E-3,6.462499965E-3,-1.292499993E-2
4.331805101E0,1.361249946E-2,-8.249999955E-4,-1.044999994E-2
4.334312103E0,1.237499993E-2,-1.058750041E-2,-1.924999990E-3
4.336818026E0,-3.574999981E-3,-1.306249946E-2,7.837500423E-3
4.339324793E0,-2.433750033E-2,-1.306249946E-2,1.402499992E-2
4.341832716E0,-3.038750030E-2,-9.349999949E-3,1.636249945E-2
4.344339488E0,-1.938750036E-2,-5.774999969E-3,1.278750040E-2
4.346845407E0,6.187499966E-3,-2.062499989E-3,6.599999964E-3
4.349352405E0,3.189999983E-2,4.124999978E-4,5.499999970E-4
4.351860097E0,3.918749839E-2,-8.249999955E-4,-4.399999976E-3
4.354366872E0,3.066249937E-2,4.124999978E-4,-6.737499963E-3
4.356872795E0,9.899999946E-3,4.124999978E-4,-7.974999957E-3
4.359379779E0,-1.333750039E-2,8.937500417E-3,-6.737499963E-3
4.361887472E0,-2.433750033E-2,1.746249944E-2,-9.212499484E-3
4.364394243E0,-2.186249942E-2,2.117500082E-2,-1.044999994E-2
4.366900180E0,-8.387500420E-3,1.017499994E-2,-1.168750040E-2
4.369407178E0,9.899999946E-3,-4.537499975E-3,-9.212499484E-3
4.371914870E0,1.471249945E-2,-1.429999992E-2,5.499999970E-4
4.374421642E0,3.849999979E-3,-1.911249943E-2,9.074999951E-3
4.376927795E0,-1.086249948E-2,-1.553750038E-2,1.636249945E-2
4.379434563E0,-2.791249938E-2,-9.349999949E-3,1.759999990E-2
4.381942255E0,-2.186249942E-2,-2.062499989E-3,1.402499992E-2
4.384449026E0,-3.574999981E-3,-2.062499989E-3,7.837500423E-3
4.386955180E0,2.337500080E-2,-2.062499989E-3,-6.874999963E-4
4.389461947E0,3.918749839E-2,-7.012499962E-3,-6.737499963E-3
4.391969640E0,3.437500075E-2,-2.062499989E-3,-1.044999994E-2
4.394476411E0,1.361249946E-2,-8.249999955E-4,-6.737499963E-3
4.396982565E0,-1.209999993E-2,8.937500417E-3,-3.162499983E-3
4.399489318E0,-2.681249939E-2,1.746249944E-2,-5.637499969E-3
4.401997010E0,-2.309999987E-2,1.746249944E-2,-7.974999957E-3
4.404503853E0,-7.149999961E-3,1.264999993E-2,-1.168750040E-2
4.407009930E0,9.899999946E-3,-2.062499989E-3,-1.044999994E-2
4.409516698E0,1.594999991E-2,-1.429999992E-2,-3.162499983E-3
4.412024356E0,6.187499966E-3,-1.553750038E-2,4.262499977E-3
4.414531204E0,-1.209999993E-2,-8.112499490E-3,1.278750040E-2
4.417037277E0,-2.791249938E-2,-3.299999982E-3,1.402499992E-2
4.419544044E0,-2.433750033E-2,4.124999978E-4,1.278750040E-2
4.422051736E0,-7.149999961E-3,-3.299999982E-3,6.599999964E-3
4.424558585E0,1.718750037E-2,-9.349999949E-3,1.787499990E-3
4.427064662E0,3.671250120E-2,-7.012499962E-3,-6.737499963E-3
4.429571429E0,3.561250120E-2,-2.062499989E-3,-6.737499963E-3
4.432079121E0,1.966249943E-2,3.987499978E-3,-4.399999976E-3
4.434585969E0,-3.574999981E-3,1.264999993E-2,-4.399999976E-3
4.437092046E0,-1.938750036E-2,1.869999990E-2,-4.399999976E-3
4.439598793E0,-2.309999987E-2,1.498750038E-2,-7.974999957E-3
4.442106486E0,-1.086249948E-2,8.937500417E-3,-9.212499484E-3
4.444613334E0,7.424999960E-3,4.124999978E-4,-7.974999957E-3
4.447119411E0,1.842499897E-2,-8.112499490E-3,-4.399999976E-3
4.449626255E0,7.424999960E-3,-1.429999992E-2,5.362499971E-3
4.452133885E0,-1.086249948E-2,-1.429999992E-2,1.402499992E-2
4.454640734E0,-2.681249939E-2,-9.349999949E-3,1.883750036E-2
4.457146810E0,-2.681249939E-2,-5.774999969E-3,1.636249945E-2
4.459653655E0,-7.149999961E-3,-3.299999982E-3,1.154999994E-2
4.462161270E0,2.089999989E-2,-3.299999982E-3,3.024999984E-3
4.464668118E0,3.795000166E-2,-2.062499989E-3,-5.637499969E-3
4.467174195E0,3.313750029E-2,-3.299999982E-3,-5.637499969E-3
4.469681039E0,1.594999991E-2,4.124999978E-4,-6.737499963E-3
4.472188655E0,-4.812499974E-3,6.462499965E-3,-4.399999976E-3
4.474695503E0,-2.062499896E-2,1.622499898E-2,-6.737499963E-3
4.477201580E0,-2.557500079E-2,1.993750036E-2,-1.044999994E-2
4.479708424E0,-1.333750039E-2,1.498750038E-2,-1.168750040E-2
4.482216116E0,4.949999973E-3,3.987499978E-3,-1.292499993E-2
4.484723118E0,1.718750037E-2,-9.349999949E-3,-4.399999976E-3
4.487229041E0,1.361249946E-2,-1.429999992E-2,5.362499971E-3
4.489735809E0,-6.049999967E-3,-1.677500084E-2,1.636249945E-2
4.492243491E0,-2.309999987E-2,-1.182499994E-2,2.007500082E-2
4.494750493E0,-3.038750030E-2,-8.112499490E-3,1.636249945E-2
4.497256416E0,-1.704999991E-2,-4.537499975E-3,1.278750040E-2
4.499763154E0,7.424999960E-3,-4.537499975E-3,5.499999970E-4
4.502270847E0,3.437500075E-2,-8.249999955E-4,-6.737499963E-3
4.504777604E0,3.918749839E-2,-2.062499989E-3,-1.044999994E-2
4.507283758E0,2.461249940E-2,1.649999991E-3,-9.212499484E-3
4.509790525E0,1.374999993E-3,6.462499965E-3,-6.737499963E-3
4.512298183E0,-1.457499992E-2,1.264999993E-2,-5.637499969E-3
4.514805185E0,-1.938750036E-2,1.869999990E-2,-3.162499983E-3
4.517311113E0,-1.086249948E-2,1.498750038E-2,-7.974999957E-3
4.519817880E0,3.849999979E-3,5.224999972E-3,-7.974999957E-3
4.522325573E0,1.594999991E-2,-1.058750041E-2,-3.162499983E-3
4.524832575E0,1.361249946E-2,-1.911249943E-2,4.262499977E-3
4.527338498E0,-4.812499974E-3,-1.787500083E-2,1.154999994E-2
4.529845496E0,-2.309999987E-2,-7.012499962E-3,1.402499992E-2
4.532352957E0,-2.791249938E-2,-8.249999955E-4,1.512499992E-2
4.534859959E0,-1.581249945E-2,4.124999978E-4,7.837500423E-3
4.537365883E0,1.113750041E-2,-2.062499989E-3,5.499999970E-4
4.539872881E0,3.313750029E-2,-7.012499962E-3,-5.637499969E-3
4.542380318E0,3.795000166E-2,-5.774999969E-3,-5.637499969E-3
4.544887320E0,2.942499891E-2,-4.537499975E-3,-4.399999976E-3
4.547393243E0,6.187499966E-3,6.462499965E-3,-4.399999976E-3
4.549900241E0,-1.704999991E-2,1.388750039E-2,-1.924999990E-3
4.552407722E0,-2.557500079E-2,1.869999990E-2,-6.737499963E-3
4.554914806E0,-1.938750036E-2,1.388750039E-2,-1.168750040E-2
4.557421917E0,-1.099999994E-3,2.887499984E-3,-1.168750040E-2
4.559927647E0,1.471249945E-2,-8.112499490E-3,-1.044999994E-2
4.562435337E0,1.237499993E-2,-1.182499994E-2,-6.874999963E-4
4.564942108E0,-4.812499974E-3,-1.182499994E-2,7.837500423E-3
4.567448031E0,-2.186249942E-2,-1.058750041E-2,1.636249945E-2
4.569955048E0,-2.433750033E-2,-3.299999982E-3,1.636249945E-2
4.572462741E0,-1.333750039E-2,-8.112499490E-3,1.402499992E-2
4.574969536E0,9.899999946E-3,-7.012499962E-3,9.074999951E-3
4.577475459E0,3.189999983E-2,-8.112499490E-3,1.787499990E-3
4.579982462E0,4.042499885E-2,-4.537499975E-3,-3.162499983E-3
4.582490154E0,2.694999985E-2,4.124999978E-4,-7.974999957E-3
4.584996926E0,4.949999973E-3,6.462499965E-3,-7.974999957E-3
4.587502849E0,-1.581249945E-2,1.388750039E-2,-7.974999957E-3
4.590009847E0,-2.557500079E-2,1.869999990E-2,-1.044999994E-2
4.592517539E0,-1.938750036E-2,1.498750038E-2,-1.168750040E-2
4.595024310E0,1.374999993E-4,8.937500417E-3,-1.168750040E-2
4.597530464E0,1.718750037E-2,-4.537499975E-3,-5.637499969E-3
4.600037231E0,1.842499897E-2,-1.429999992E-2,1.787499990E-3
4.602544924E0,3.849999979E-3,-1.677500084E-2,1.154999994E-2
4.605051699E0,-1.581249945E-2,-1.553750038E-2,1.759999990E-2
4.607557853E0,-2.791249938E-2,-8.112499490E-3,1.759999990E-2
4.610064620E0,-2.062499896E-2,-3.299999982E-3,1.278750040E-2
4.612572317E0,1.374999993E-4,4.124999978E-4,3.024999984E-3
4.615079089E0,2.461249940E-2,4.124999978E-4,-5.637499969E-3
4.617585242E0,3.795000166E-2,-2.062499989E-3,-9.212499484E-3
4.620092010E0,2.818750031E-2,-2.062499989E-3,-7.974999957E-3
4.622599697E0,4.949999973E-3,-8.249999955E-4,-4.399999976E-3
4.625106545E0,-1.581249945E-2,7.699999958E-3,-4.399999976E-3
4.627612622E0,-2.309999987E-2,1.622499898E-2,-4.399999976E-3
4.630119466E0,-1.704999991E-2,1.993750036E-2,-5.637499969E-3
4.632627082E0,1.374999993E-4,8.937500417E-3,-9.212499484E-3
4.635133930E0,1.718750037E-2,-3.299999982E-3,-6.737499963E-3
4.637640007E0,1.966249943E-2,-1.677500084E-2,-6.874999963E-4
4.640146851E0,3.849999979E-3,-2.034999989E-2,9.074999951E-3
4.642654466E0,-1.814999990E-2,-1.306249946E-2,1.512499992E-2
4.645161314E0,-3.038750030E-2,-2.062499989E-3,1.636249945E-2
4.647667405E0,-2.433750033E-2,1.649999991E-3,1.278750040E-2
4.650174249E0,-3.574999981E-3,-3.299999982E-3,4.262499977E-3
4.652681885E0,2.337500080E-2,-5.774999969E-3,-1.924999990E-3
4.655188733E0,3.671250120E-2,-9.349999949E-3,-6.737499963E-3
4.657694810E0,3.313750029E-2,-4.537499975E-3,-7.974999957E-3
4.660201668E0,1.237499993E-2,3.987499978E-3,-6.737499963E-3
4.662709360E0,-8.387500420E-3,1.498750038E-2,-4.399999976E-3
4.665216138E0,-2.186249942E-2,2.241249941E-2,-5.637499969E-3
4.667722215E0,-1.704999991E-2,1.869999990E-2,-9.212499484E-3
4.670229059E0,-1.099999994E-3,8.937500417E-3,-1.044999994E-2
4.672736751E0,1.361249946E-2,-4.537499975E-3,-9.212499484E-3
4.675243522E0,1.361249946E-2,-1.306249946E-2,-6.874999963E-4
4.677749676E0,1.374999993E-3,-1.787500083E-2,7.837500423E-3
4.680256443E0,-1.938750036E-2,-1.306249946E-2,1.636249945E-2
4.682764136E0,-3.162499890E-2,-5.774999969E-3,1.759999990E-2
4.685270907E0,-2.186249942E-2,-8.249999955E-4,1.512499992E-2
4.687777061E0,3.849999979E-3,-5.774999969E-3,9.074999951E-3
4.690283865E0,2.818750031E-2,-8.112499490E-3,1.787499990E-3
4.692791557E0,3.918749839E-2,-1.058750041E-2,-3.162499983E-3
4.695298329E0,3.066249937E-2,-3.299999982E-3,-5.637499969E-3
4.697804487E0,1.113750041E-2,2.887499984E-3,-5.637499969E-3
4.700311255E0,-1.333750039E-2,1.264999993E-2,-4.399999976E-3
4.702818956E0,-2.791249938E-2,2.117500082E-2,-1.044999994E-2
4.705325958E0,-2.681249939E-2,1.622499898E-2,-1.044999994E-2
4.707831881E0,-6.049999967E-3,8.937500417E-3,-1.292499993E-2
4.710338648E0,1.471249945E-2,-2.062499989E-3,-9.212499484E-3
4.712846341E0,2.213750035E-2,-9.349999949E-3,-3.162499983E-3
4.715353343E0,9.899999946E-3,-1.429999992E-2,7.837500423E-3
4.717859266E0,-1.319999993E-2,-1.306249946E-2,1.759999990E-2
4.720366033E0,-3.038750030E-2,-9.349999949E-3,2.007500082E-2
4.722873725E0,-2.543750033E-2,-5.774999969E-3,1.512499992E-2
4.725380727E0,-4.674999975E-3,-3.299999982E-3,7.837500423E-3
4.727886622E0,2.103750035E-2,-3.299999982E-3,-6.874999963E-4
4.730393390E0,3.684999794E-2,4.124999978E-4,-9.212499484E-3
4.732901077E0,3.189999983E-2,4.124999978E-4,-1.168750040E-2
4.735408079E0,1.113750041E-2,6.462499965E-3,-7.974999957E-3
4.737913993E0,-9.624999948E-3,8.937500417E-3,-6.874999963E-3
4.740420991E0,-2.172499895E-2,1.622499898E-2,-4.399999976E-3
4.742928439E0,-1.567500085E-2,1.993750036E-2,-6.874999963E-3
4.745435441E0,-9.624999948E-4,1.251249947E-2,-9.212499484E-3
4.747941364E0,1.732499897E-2,-4.537499975E-3,-5.637499969E-3
4.750448362E0,2.103750035E-2,-1.677500084E-2,5.499999970E-4
4.752955823E0,8.799999952E-3,-1.924999990E-2,9.074999951E-3
4.755462825E0,-1.443750039E-2,-1.429999992E-2,1.512499992E-2
4.757968748E0,-3.038750030E-2,-7.012499962E-3,1.636249945E-2
4.760475746E0,-3.038750030E-2,-8.249999955E-4,1.154999994E-2
4.762983439E0,-1.196249947E-2,-8.249999955E-4,2.887499984E-3
4.765490210E0,1.608750038E-2,-4.537499975E-3,-3.162499983E-3
4.767996354E0,3.437500075E-2,-3.299999982E-3,-7.974999957E-3
4.770503121E0,3.561250120E-2,-4.537499975E-3,-5.637499969E-3
4.773010813E0,2.103750035E-2,4.124999978E-4,-4.399999976E-3
4.775517579E0,-9.624999948E-4,7.699999958E-3,-1.924999990E-3
4.778023503E0,-1.691249944E-2,1.498750038E-2,-1.924999990E-3
4.780530511E0,-1.938750036E-2,1.869999990E-2,-7.974999957E-3
4.783038203E0,-4.674999975E-3,1.374999993E-2,-9.212499484E-3
4.785544959E0,1.237499993E-2,2.749999985E-3,-1.044999994E-2
4.788051113E0,1.484999992E-2,-1.058750041E-2,-5.637499969E-3
4.790557885E0,1.374999993E-3,-1.677500084E-2,2.887499984E-3
4.793065578E0,-1.814999990E-2,-1.553750038E-2,1.154999994E-2
4.795572426E0,-3.519999981E-2,-7.012499962E-3,1.759999990E-2
4.798078272E0,-3.038750030E-2,-2.062499989E-3,1.388750039E-2
4.800585270E0,-9.624999948E-3,-2.062499989E-3,9.074999951E-3
4.803092962E0,1.979999989E-2,-4.537499975E-3,2.887499984E-3
4.805599810E0,4.289999977E-2,-7.012499962E-3,-1.924999990E-3
4.808105887E0,4.289999977E-2,-4.537499975E-3,-5.637499969E-3
4.810612654E0,2.337500080E-2,-8.249999955E-4,-5.637499969E-3
4.813120347E0,-2.199999988E-3,1.141249947E-2,-3.162499983E-3
4.815627181E0,-1.938750036E-2,1.869999990E-2,-6.874999963E-3
4.818133258E0,-2.419999987E-2,2.241249941E-2,-6.874999963E-3
4.820640092E0,-1.443750039E-2,1.141249947E-2,-1.168750040E-2
4.823147707E0,3.849999979E-3,-8.249999955E-4,-1.044999994E-2
4.825654556E0,1.484999992E-2,-1.058750041E-2,-4.399999976E-3
4.828160633E0,1.237499993E-2,-1.429999992E-2,4.124999978E-3
4.830667477E0,-4.674999975E-3,-1.429999992E-2,1.388750039E-2
4.833175086E0,-2.296249941E-2,-8.249999955E-3,1.636249945E-2
4.835681934E0,-2.667500079E-2,-4.537499975E-3,1.759999990E-2
4.838188011E0,-1.319999993E-2,-5.774999969E-3,9.074999951E-3
4.840694855E0,1.608750038E-2,-5.774999969E-3,1.787499990E-3
4.843202471E0,3.684999794E-2,-4.537499975E-3,-4.399999976E-3
4.845709319E0,3.932499886E-2,2.749999985E-3,-7.974999957E-3
4.848215396E0,2.213750035E-2,1.649999991E-3,-6.874999963E-3
4.850722240E0,-2.199999988E-3,6.462499965E-3,-6.874999963E-3
4.853229932E0,-2.062499896E-2,1.251249947E-2,-4.399999976E-3
4.855736704E0,-2.543750033E-2,1.746249944E-2,-6.874999963E-3
4.858242775E0,-1.319999993E-2,1.374999993E-2,-9.212499484E-3
4.860749620E0,5.087499972E-3,5.224999972E-3,-9.212499484E-3
4.863257312E0,1.608750038E-2,-7.012499962E-3,-7.974999957E-3
4.865764079E0,1.113750041E-2,-1.677500084E-2,1.787499990E-3
4.868270156E0,-5.912499968E-3,-1.429999992E-2,1.031249948E-2
4.870777000E0,-2.172499895E-2,-1.058750041E-2,1.636249945E-2
4.873284707E0,-2.667500079E-2,-4.537499975E-3,1.512499992E-2
4.875791478E0,-1.691249944E-2,-5.774999969E-3,1.031249948E-2
4.878297598E0,7.562499959E-3,-4.537499975E-3,6.599999964E-3
4.880804442E0,2.956249937E-2,-4.537499975E-3,-1.924999990E-3
4.883312154E0,4.056249931E-2,-2.062499989E-3,-5.637499969E-3
4.885818925E0,3.079999983E-2,1.649999991E-3,-5.637499969E-3
4.888325002E0,8.799999952E-3,2.749999985E-3,-4.399999976E-3
4.890831847E0,-1.072499994E-2,1.141249947E-2,-5.637499969E-3
4.893339539E0,-2.296249941E-2,1.869999990E-2,-9.212499484E-3
4.895846310E0,-1.443750039E-2,1.746249944E-2,-1.044999994E-2
4.898352464E0,1.374999993E-4,7.699999958E-3,-1.044999994E-2
4.900859231E0,1.608750038E-2,-3.299999982E-3,-6.874999963E-3
4.903366923E0,1.237499993E-2,-1.553750038E-2,5.499999970E-4
4.905873695E0,-5.912499968E-3,-1.924999990E-2,1.154999994E-2
4.908379858E0,-2.296249941E-2,-1.429999992E-2,1.636249945E-2
4.910886856E0,-2.914999984E-2,-3.299999982E-3,1.278750040E-2
4.913394317E0,-1.567500085E-2,4.124999978E-4,1.154999994E-2
4.915901319E0,1.003750041E-2,4.124999978E-4,2.887499984E-3
4.918407256E0,3.437500075E-2,-4.537499975E-3,-6.874999963E-4
4.920914023E0,3.932499886E-2,-1.058750041E-2,-4.399999976E-3
4.923421707E0,2.708750032E-2,-7.012499962E-3,-5.637499969E-3
4.925928709E0,3.849999979E-3,2.749999985E-3,-1.924999990E-3
4.928434632E0,-1.691249944E-2,1.622499898E-2,-3.162499983E-3
4.930941399E0,-2.667500079E-2,2.241249941E-2,-7.974999957E-3
4.933449322E0,-2.062499896E-2,1.869999990E-2,-1.292499993E-2
4.935956093E0,-9.624999948E-4,3.987499978E-3,-1.168750040E-2
4.938462016E0,1.237499993E-2,-1.058750041E-2,-1.044999994E-2
4.940968784E0,1.608750038E-2,-1.677500084E-2,-1.924999990E-3
4.943476707E0,1.374999993E-3,-1.553750038E-2,1.278750040E-2
