"Time (s)","Acceleration x (m/s^2)","Acceleration y (m/s^2)","Acceleration z (m/s^2)"
1.353625600E-2,-4.660500288E-1,1.081005096E1,1.054949999E0
1.604215100E-2,-3.559500277E-1,1.163595009E1,1.491000056E0
1.854892000E-2,-1.620000005E-1,1.146105099E1,1.395000100E0
2.105662200E-2,-9.000000544E-3,1.033305073E1,1.354950070E0
2.356362200E-2,1.200000010E-2,8.863050461E0,1.618050098E0
2.606954500E-2,-2.295000106E-2,7.804950237E0,1.860000134E0
2.857631400E-2,-2.100000158E-2,7.585050583E0,1.849950075E0
3.108401600E-2,4.095000029E-2,8.506950378E0,2.358000040E0
3.359101800E-2,9.600000083E-2,9.924000740E0,3.403950214E0
3.609695000E-2,2.370000184E-1,1.103505039E1,3.883050203E0
3.860371800E-2,3.760500252E-1,1.120305061E1,3.304050207E0
4.111141000E-2,3.810000122E-1,1.043400097E1,2.278950214E0
4.361818100E-2,2.299500108E-1,9.262950897E0,1.399950027E0
4.612433500E-2,1.905000024E-2,8.430000305E0,6.559500098E-1
4.863110200E-2,-2.290500104E-1,8.377050400E0,-5.505000427E-2
5.113879500E-2,-3.610500097E-1,9.019050598E0,-3.319500089E-1
5.364556600E-2,-4.350000322E-1,1.005795002E1,4.570500255E-1
5.615164300E-2,-3.679500222E-1,1.089105034E1,1.776000142E0
5.865848700E-2,-1.519500017E-1,1.106595039E1,2.547000170E0
6.116621300E-2,1.410000026E-1,1.051500034E1,2.533050060E0
6.367298400E-2,3.610500097E-1,9.541050911E0,2.485050201E0
6.617906100E-2,4.020000100E-1,8.644950867E0,2.536950111E0
6.868593900E-2,3.280500174E-1,8.158950806E0,2.272050142E0
7.119363100E-2,1.990500093E-1,8.274000168E0,1.707000136E0
7.370040200E-2,-1.800000109E-2,8.944950104E0,1.719000101E0
7.620647900E-2,-1.720500141E-1,1.002900028E1,2.466000080E0
7.871332300E-2,-1.669500023E-1,1.088205051E1,2.808000088E0
8.122091900E-2,-4.500000179E-2,1.116195011E1,2.263950109E0
8.372776700E-2,6.405000389E-2,1.066395092E1,1.443000078E0
8.623385400E-2,8.595000207E-2,9.663000107E0,8.830500245E-1
8.874062100E-2,-1.950000064E-3,8.701050758E0,5.620500445E-1
9.124831300E-2,-1.069500074E-1,8.257950783E0,2.050500065E-1
9.375516100E-2,-1.810500026E-1,8.617050171E0,4.350000322E-1
9.626123800E-2,-1.999500096E-1,9.651000023E0,1.659000039E0
9.876800600E-2,-5.895000324E-2,1.062795067E1,2.893950224E0
1.012756980E-1,1.870500147E-1,1.100100040E1,3.325050116E0
1.037825460E-1,4.189500213E-1,1.054395008E1,3.001950026E0
1.062886230E-1,4.480500221E-1,9.547950745E0,2.584950209E0
1.087953900E-1,3.420000076E-1,8.559000015E0,2.200050116E0
1.113031630E-1,1.050000042E-1,8.112000465E0,1.606050134E0
1.138099350E-1,-1.360500008E-1,8.406000137E0,9.979500771E-1
1.163160410E-1,-3.130500019E-1,9.400050163E0,1.075049996E0
1.188228080E-1,-3.799500167E-1,1.050600052E1,1.711050034E0
1.213305000E-1,-2.550000250E-1,1.107600021E1,2.025000095E0
1.238372710E-1,-2.100000158E-2,1.094595051E1,1.804950118E0
1.263434630E-1,1.480500102E-1,1.022595024E1,1.534050107E0
1.288502300E-1,1.990500093E-1,9.321000099E0,1.503000021E0
1.313579230E-1,1.960500032E-1,8.623950005E0,1.450050116E0
1.338646940E-1,1.339500099E-1,8.413050652E0,1.170000076E0
1.363708480E-1,3.299999982E-2,8.719950676E0,1.198950052E0
1.388776150E-1,-3.495000303E-2,9.555000305E0,2.017950058E0
1.413853070E-1,-5.400000140E-2,1.042395020E1,2.973000050E0
1.438921370E-1,4.800000042E-2,1.086495018E1,3.150000095E0
1.463982130E-1,1.770000011E-1,1.065900040E1,2.688000202E0
1.489049810E-1,2.389500141E-1,9.799950600E0,2.020050049E0
1.514126730E-1,1.309500039E-1,8.844000816E0,1.465050101E0
1.539195210E-1,-5.895000324E-2,8.293050766E0,8.730000257E-1
1.564255980E-1,-2.410500050E-1,8.430000305E0,3.510000110E-1
1.589323650E-1,-3.660000265E-1,9.304050446E0,7.900500298E-1
1.614398270E-1,-3.250500262E-1,1.037205029E1,1.908000112E0
1.639468290E-1,-1.429500133E-1,1.103295040E1,2.523000002E0
1.664527520E-1,2.029500157E-1,1.096095085E1,2.437050104E0
1.689597740E-1,4.450500309E-1,1.018995094E1,2.142000198E0
1.714674660E-1,5.050500035E-1,9.133950233E0,1.941000104E0
1.739742570E-1,4.000500143E-1,8.406000137E0,1.813950062E0
1.764801800E-1,1.549500078E-1,8.332050323E0,1.482000113E0
1.789871780E-1,-7.605000585E-2,8.893950462E0,1.339950085E0
1.814948850E-1,-2.100000083E-1,9.835050583E0,1.849950075E0
1.840016560E-1,-2.749500275E-1,1.059405041E1,2.410950184E0
1.865075790E-1,-1.740000099E-1,1.081005096E1,2.406000137E0
1.890145610E-1,-2.295000106E-2,1.042905045E1,1.987050056E0
1.915220230E-1,6.705000252E-2,9.667950630E0,1.642050028E0
1.940290250E-1,8.400000632E-2,8.928000450E0,1.470000029E0
1.965349480E-1,2.100000158E-2,8.546999931E0,1.150950074E0
1.990419460E-1,-1.095000096E-2,8.631000519E0,7.939500213E-1
2.015494070E-1,-5.700000376E-2,9.253950119E0,1.144050002E0
2.040564090E-1,-3.495000303E-2,1.010400009E1,2.104050159E0
2.065623330E-1,9.105000645E-2,1.071405029E1,2.821950197E0
2.090693310E-1,2.659500241E-1,1.082400036E1,2.815050125E0
2.115767920E-1,3.760500252E-1,1.028295040E1,2.437050104E0
2.140837800E-1,3.690000176E-1,9.402000427E0,1.999050140E0
2.165897030E-1,1.579500139E-1,8.623950005E0,1.534050107E0
2.190964460E-1,-1.020000055E-1,8.313000679E0,9.640500546E-1
2.216041390E-1,-3.180000186E-1,8.710050583E0,7.470000386E-1
2.241111410E-1,-4.540500343E-1,9.718050003E0,1.441050053E0
2.266170540E-1,-3.889500201E-1,1.064700031E1,2.284050226E0
2.291238210E-1,-9.705000371E-2,1.098705006E1,2.403000116E0
2.316315180E-1,2.010000050E-1,1.056300068E1,2.083050013E0
2.341382900E-1,4.020000100E-1,9.619950294E0,1.744950056E0
2.366444430E-1,3.850500286E-1,8.740950584E0,1.687050104E0
2.391512110E-1,2.419500053E-1,8.419950485E0,1.549050093E0
2.416589030E-1,8.805000782E-2,8.760000229E0,1.290000081E0
2.441656740E-1,-7.800000161E-2,9.438000679E0,1.431000113E0
2.466718280E-1,-1.690500081E-1,1.018005085E1,2.106000185E0
2.491785950E-1,-1.690500081E-1,1.053495026E1,2.502000093E0
2.516862880E-1,-2.295000106E-2,1.049595070E1,2.434050083E0
2.541932900E-1,1.030500084E-1,1.010400009E1,2.188050032E0
2.566991360E-1,1.530000120E-1,9.490950584E0,1.963050127E0
2.592059940E-1,1.390500069E-1,8.916000366E0,1.639950037E0
2.617136860E-1,3.299999982E-2,8.641050339E0,1.110000014E0
2.642204580E-1,-8.295000345E-2,8.839050293E0,6.940500140E-1
2.667265200E-1,-1.639500111E-1,9.487950325E0,1.072050095E0
2.692333650E-1,-1.789500117E-1,1.025205040E1,1.984050035E0
2.717410570E-1,-1.605000161E-2,1.076400089E1,2.524950027E0
2.742478320E-1,2.130000144E-1,1.072605038E1,2.475000143E0
2.767539090E-1,3.450000286E-1,1.005300045E1,2.121000051E0
2.792607530E-1,3.280500174E-1,9.067049980E0,1.801950097E0
2.817684460E-1,1.510500014E-1,8.310000420E0,1.543950081E0
2.842752170E-1,-7.605000585E-2,8.218950272E0,1.266000032E0
2.867813710E-1,-2.629500031E-1,8.938050270E0,1.422000051E0
2.892880610E-1,-3.180000186E-1,1.008195019E1,2.157000065E0
2.917958300E-1,-1.960500032E-1,1.090800095E1,2.674050093E0
2.943026010E-1,4.995000362E-2,1.093005085E1,2.463000059E0
2.968086780E-1,2.779500186E-1,1.024005032E1,1.843050122E0
2.993154460E-1,3.180000186E-1,9.285000801E0,1.438050032E0
3.018232150E-1,1.939500123E-1,8.695950508E0,1.278000116E0
3.043299620E-1,5.700000376E-2,8.674050331E0,1.081950068E0
3.068360390E-1,-1.000500023E-1,9.145950317E0,9.840000272E-1
3.093428210E-1,-1.909500062E-1,9.867000580E0,1.315950036E0
3.118505910E-1,-1.519500017E-1,1.038600063E1,1.963050127E0
3.143573420E-1,-7.605000585E-2,1.048200035E1,2.434050083E0
3.168634190E-1,9.795000404E-2,1.014405060E1,2.548950195E0
3.193702640E-1,2.269500047E-1,9.589050293E0,2.386950016E0
3.218778790E-1,2.299500108E-1,9.145950317E0,2.221050024E0
3.243847270E-1,1.459500045E-1,8.917950630E0,1.987050056E0
3.268908040E-1,2.895000204E-2,8.896950722E0,1.378950119E0
3.293976480E-1,-1.600500047E-1,9.112050056E0,9.310500622E-1
3.319052640E-1,-2.749500275E-1,9.603000641E0,1.279950023E0
3.344121120E-1,-2.509500086E-1,1.021395016E1,1.948050141E0
3.369181890E-1,-1.170000061E-1,1.071195030E1,2.298000097E0
3.394249560E-1,1.630500108E-1,1.073295021E1,2.180999994E0
3.419326490E-1,3.520500064E-1,1.010100079E1,1.819050074E0
3.444394820E-1,3.730500042E-1,9.136050224E0,1.551000118E0
3.469455590E-1,2.149500102E-1,8.461050034E0,1.303950071E0
3.494523260E-1,-4.200000316E-2,8.410950661E0,1.117950082E0
3.519600230E-1,-2.070000172E-1,9.088050842E0,1.486050129E0
3.544668710E-1,-2.599500120E-1,1.009395027E1,2.338950157E0
3.569729290E-1,-1.759500057E-1,1.080300045E1,2.758050203E0
3.594796960E-1,9.300000221E-2,1.075695038E1,2.511000156E0
3.619873890E-1,2.509500086E-1,1.006005001E1,1.977000117E0
3.644941600E-1,2.869500220E-1,9.160050392E0,1.630050063E0
3.670000980E-1,1.699500084E-1,8.562000275E0,1.450050116E0
3.695070960E-1,-1.395000052E-2,8.533050537E0,1.189050078E0
3.720147880E-1,-1.759500057E-1,9.151050568E0,1.039050102E0
3.745215600E-1,-2.170500159E-1,9.976950645E0,1.378950119E0
3.770274830E-1,-1.600500047E-1,1.056795025E1,1.992000103E0
3.795344810E-1,-3.000000119E-2,1.058205032E1,2.260050058E0
3.820421730E-1,1.630500108E-1,1.014195061E1,2.229000092E0
3.845489340E-1,2.749500275E-1,9.570000648E0,2.190000057E0
3.870548570E-1,2.730000019E-1,9.129000664E0,2.182950020E0
3.895618550E-1,1.939500123E-1,8.938050270E0,1.888950109E0
3.920693170E-1,3.600000218E-2,8.923050880E0,1.303950071E0
3.945763390E-1,-1.279500127E-1,9.214950562E0,1.054949999E0
3.970822620E-1,-2.530499995E-1,9.768000603E0,1.528950095E0
3.995892600E-1,-2.770500183E-1,1.030695057E1,2.166000128E0
4.020967410E-1,-9.000000358E-2,1.049100018E1,2.253000021E0
4.046037430E-1,1.650000066E-1,1.028295040E1,2.037000179E0
4.071096660E-1,2.850000262E-1,9.718050003E0,1.743000031E0
4.096164330E-1,2.779500186E-1,9.117000580E0,1.551000118E0
4.121241250E-1,1.000500023E-1,8.751000404E0,1.395000100E0
4.146311410E-1,-1.069500074E-1,8.772000313E0,1.185000062E0
4.171370640E-1,-2.670000196E-1,9.313050270E0,1.495950103E0
4.196437930E-1,-2.530499995E-1,1.003695011E1,2.221050024E0
4.221504380E-1,-9.000000358E-2,1.049100018E1,2.539950132E0
4.246585240E-1,1.699500084E-1,1.046805096E1,2.362950087E0
4.271644490E-1,3.400500119E-1,1.002495003E1,2.073000193E0
4.296714470E-1,3.760500252E-1,9.358950615E0,1.881000042E0
4.321788940E-1,2.539499998E-1,8.904000282E0,1.732950091E0
4.346856660E-1,6.405000389E-2,8.824950218E0,1.366950035E0
4.371918200E-1,-1.140000075E-1,9.177000046E0,1.021950006E0
4.396988180E-1,-2.359500080E-1,9.739950180E0,1.197000027E0
4.422062790E-1,-2.410500050E-1,1.020405006E1,1.726050138E0
4.447132810E-1,-1.450500041E-1,1.030695057E1,1.999050140E0
4.472191270E-1,4.500000179E-2,1.019895077E1,2.161950111E0
4.497259710E-1,1.750500053E-1,9.807000160E0,2.213999987E0
4.522336780E-1,2.269500047E-1,9.301050186E0,2.180999994E0
4.547404490E-1,2.130000144E-1,8.893950462E0,1.912950039E0
4.572466030E-1,8.400000632E-2,8.784000397E0,1.402950048E0
4.597533700E-1,-6.599999964E-2,9.036000252E0,1.230000019E0
4.622610670E-1,-1.639500111E-1,9.673050880E0,1.731000066E0
4.647680690E-1,-1.279500127E-1,1.028295040E1,2.298000097E0
4.672739920E-1,5.205000192E-2,1.054905033E1,2.365050077E0
4.697807600E-1,2.340000123E-1,1.035000038E1,2.122950077E0
4.722884710E-1,3.300000131E-1,9.819000244E0,1.795050144E0
4.747952420E-1,2.800500095E-1,9.201000214E0,1.522050023E0
4.773013960E-1,6.900000572E-2,8.815050125E0,1.288050056E0
4.798081630E-1,-1.720500141E-1,8.839050293E0,1.060050011E0
4.823158610E-1,-3.220500052E-1,9.321000099E0,1.266000032E0
4.848226320E-1,-3.270000219E-1,1.006305027E1,1.896000147E0
4.873287090E-1,-1.549500078E-1,1.045305061E1,2.323950052E0
4.898355910E-1,1.099500060E-1,1.039305019E1,2.296050072E0
4.923432830E-1,3.210000098E-1,9.924000740E0,2.128050089E0
4.948500550E-1,4.120500088E-1,9.274950027E0,1.981950045E0
4.973561410E-1,2.869500220E-1,8.911050797E0,1.921950102E0
4.998629860E-1,1.030500084E-1,8.916000366E0,1.663950086E0
5.023706780E-1,-8.505000174E-2,9.202950478E0,1.257000089E0
5.048774490E-1,-2.220000178E-1,9.706050873E0,1.279950023E0
5.073835310E-1,-2.770500183E-1,1.012800026E1,1.756950140E0
5.098903750E-1,-1.879500151E-1,1.027095032E1,2.025000095E0
5.123979910E-1,-1.395000052E-2,1.019700050E1,2.113950014E0
5.149048390E-1,1.510500014E-1,9.874050140E0,2.134950161E0
5.174109160E-1,2.749500275E-1,9.473999977E0,2.037000179E0
5.199177600E-1,2.730000019E-1,9.072000504E0,1.807050109E0
5.224253750E-1,1.630500108E-1,8.932950020E0,1.354950070E0
5.249322230E-1,-1.395000052E-2,9.076050758E0,1.108050108E0
5.274383140E-1,-1.519500017E-1,9.535950661E0,1.539000034E0
5.299450820E-1,-1.620000005E-1,1.007700062E1,2.121000051E0
5.324527740E-1,-1.800000109E-2,1.037895012E1,2.329050064E0
5.349596220E-1,1.669500023E-1,1.033305073E1,2.221050024E0
5.374656990E-1,2.700000107E-1,9.889950752E0,1.992000103E0
5.399724660E-1,2.440500110E-1,9.244050026E0,1.768950105E0
5.424801590E-1,6.405000389E-2,8.818050385E0,1.576950073E0
5.449870070E-1,-1.399500072E-1,8.752950668E0,1.300050020E0
5.474930840E-1,-2.980500162E-1,9.225000381E0,1.363950014E0
5.499998510E-1,-2.749500275E-1,9.937950134E0,1.860000134E0
5.525075530E-1,-1.120500043E-1,1.042695045E1,2.209050179E0
5.550143240E-1,1.549500078E-1,1.040505028E1,2.178000212E0
5.575204780E-1,3.280500174E-1,1.004100037E1,2.014950037E0
5.600272360E-1,4.020000100E-1,9.529050827E0,1.965000153E0
5.625349280E-1,3.160500228E-1,9.124050140E0,1.893000126E0
5.650416990E-1,1.240500063E-1,9.064050674E0,1.663950086E0
5.675476220E-1,-6.599999964E-2,9.208050728E0,1.257000089E0
5.700546200E-1,-2.460000068E-1,9.553050041E0,1.150950074E0
5.725623130E-1,-3.340500295E-1,9.979050636E0,1.594050050E0
5.750690840E-1,-2.770500183E-1,1.014195061E1,2.013000011E0
5.775750070E-1,-1.140000075E-1,1.008705044E1,2.193000078E0
5.800820050E-1,9.795000404E-2,9.868950844E0,2.221050024E0
5.825896630E-1,2.580000162E-1,9.541050911E0,2.092050076E0
5.850964340E-1,2.629500031E-1,9.268050194E0,1.936050057E0
5.876023570E-1,1.339500099E-1,9.067049980E0,1.540950060E0
5.901093550E-1,-1.950000064E-3,9.055050850E0,1.102950096E0
5.926168170E-1,-1.759500057E-1,9.378000259E0,1.285050035E0
5.951238190E-1,-2.050500065E-1,9.901950836E0,1.917000055E0
5.976297420E-1,-9.000000358E-2,1.027395058E1,2.242950201E0
6.001367400E-1,1.219500080E-1,1.037400055E1,2.248050213E0
6.026442210E-1,2.749500275E-1,1.013505077E1,2.128050089E0
6.051512230E-1,3.250500262E-1,9.562050819E0,1.921950102E0
6.076571460E-1,1.480500102E-1,9.045000076E0,1.752000093E0
6.101641440E-1,-6.900000572E-2,8.835000038E0,1.429050088E0
6.126716010E-1,-2.269500047E-1,9.036000252E0,1.252050042E0
6.151786030E-1,-2.910000086E-1,9.625050545E0,1.534050107E0
6.176845260E-1,-1.960500032E-1,1.021605015E1,1.917000055E0
6.201912940E-1,0.000000000E0,1.041495037E1,2.044049978E0
6.226989860E-1,1.939500123E-1,1.027395058E1,2.065950155E0
6.252059880E-1,3.130500019E-1,9.759000778E0,2.008050203E0
6.277119110E-1,3.300000131E-1,9.250950813E0,1.908000112E0
6.302189090E-1,1.840500087E-1,8.959050179E0,1.795050144E0
6.327263710E-1,4.950000439E-3,8.956950188E0,1.441050053E0
6.352333730E-1,-1.600500047E-1,9.328050613E0,1.291950107E0
6.377392960E-1,-2.580000162E-1,9.883050919E0,1.612950087E0
6.402462940E-1,-2.430000156E-1,1.015395069E1,2.056050062E0
6.427537550E-1,-9.705000371E-2,1.011105061E1,2.233050108E0
6.452604730E-1,9.795000404E-2,9.967050552E0,2.284050226E0
6.477666270E-1,2.610000074E-1,9.739950180E0,2.188050032E0
6.502733710E-1,2.850000262E-1,9.445050240E0,1.968000054E0
6.527810580E-1,1.579500139E-1,9.213000298E0,1.570050120E0
6.552880600E-1,-1.095000096E-2,9.093000412E0,1.105949998E0
6.577939830E-1,-1.860000044E-1,9.282000542E0,9.739500284E-1
6.603007500E-1,-2.939999998E-1,9.711000443E0,1.438050032E0
6.628084420E-1,-2.119500041E-1,1.015095043E1,1.920000076E0
6.653154450E-1,9.000000544E-3,1.025700092E1,2.116050005E0
6.678213680E-1,1.960500032E-1,1.008705044E1,2.145000219E0
6.703281350E-1,3.210000098E-1,9.658050537E0,2.005950212E0
6.728358270E-1,2.460000068E-1,9.226950645E0,1.963050127E0
6.753425980E-1,4.305000231E-2,8.944950104E0,1.855050087E0
6.778487520E-1,-1.600500047E-1,8.947050095E0,1.501050115E0
6.803555280E-1,-2.719500065E-1,9.325050354E0,1.462050080E0
6.828632210E-1,-3.060000241E-1,9.916950226E0,1.825950146E0
6.853699590E-1,-1.450500041E-1,1.025400066E1,2.032050133E0
6.878760360E-1,5.205000192E-2,1.023495007E1,2.008050203E0
6.903828800E-1,2.629500031E-1,9.993000031E0,1.992000103E0
6.928905520E-1,3.610500097E-1,9.583950043E0,1.932000041E0
6.953973240E-1,2.970000207E-1,9.289950371E0,1.845000029E0
6.979034050E-1,1.480500102E-1,9.175050735E0,1.555950046E0
7.004102490E-1,-2.595000155E-2,9.253950119E0,1.141950011E0
7.029179410E-1,-2.070000172E-1,9.547950745E0,1.170000076E0
7.054247120E-1,-2.959500253E-1,9.867000580E0,1.632000089E0
7.079307890E-1,-2.220000178E-1,1.006005001E1,2.035050154E0
7.104376330E-1,-4.695000127E-2,1.006800079E1,2.266950130E0
7.129452490E-1,1.309500039E-1,9.874050140E0,2.329050064E0
7.154520970E-1,2.820000052E-1,9.498000145E0,2.185050011E0
7.179581740E-1,2.440500110E-1,9.166950226E0,1.981950045E0
7.204649220E-1,9.300000221E-2,9.013950348E0,1.564950109E0
7.229726140E-1,-6.105000153E-2,9.139050484E0,1.233000040E0
7.254794630E-1,-1.960500032E-1,9.565050125E0,1.402950048E0
7.279855530E-1,-2.050500065E-1,9.979050636E0,1.783050060E0
7.304923210E-1,-4.695000127E-2,1.017300034E1,1.975050092E0
7.330000610E-1,1.459500045E-1,1.016595078E1,2.001000166E0
7.355069090E-1,3.010500073E-1,9.972000122E0,1.987050056E0
7.380129860E-1,2.869500220E-1,9.634050369E0,1.908000112E0
7.405197530E-1,1.600500047E-1,9.208050728E0,1.845000029E0
7.430274460E-1,-8.100000024E-2,8.973000526E0,1.573050022E0
7.455342170E-1,-2.389500141E-1,9.076050758E0,1.282950044E0
7.480403670E-1,-3.030000031E-1,9.543000221E0,1.450050116E0
7.505471340E-1,-2.869500220E-1,1.002705002E1,1.897950053E0
7.530548260E-1,-9.000000358E-2,1.018005085E1,2.056050062E0
7.555615980E-1,1.270500124E-1,1.003695011E1,2.080049992E0
7.580675210E-1,3.250500262E-1,9.676950455E0,2.041949987E0
7.605745190E-1,3.730500042E-1,9.352050781E0,1.968000054E0
7.630822110E-1,2.899500132E-1,9.187050819E0,1.860000134E0
7.655890590E-1,7.905000448E-2,9.160050392E0,1.491000056E0
7.680949050E-1,-1.279500127E-1,9.370950699E0,1.185000062E0
7.706019030E-1,-2.869500220E-1,9.756000519E0,1.381050110E0
7.731095810E-1,-3.100500107E-1,9.973950386E0,1.872000098E0
7.756164290E-1,-1.639500111E-1,1.001505089E1,2.113950014E0
7.781224870E-1,5.505000427E-2,9.928950310E0,2.233050108E0
7.806292540E-1,2.659500241E-1,9.735000610E0,2.212050200E0
7.831369310E-1,3.589500189E-1,9.487950325E0,2.098950148E0
7.856437020E-1,2.869500220E-1,9.297000885E0,1.896000147E0
7.881496070E-1,1.200000048E-1,9.190950394E0,1.443000078E0
7.906566050E-1,-3.495000303E-2,9.309000015E0,1.204050064E0
7.931640660E-1,-1.690500081E-1,9.630000114E0,1.411950111E0
7.956710680E-1,-1.450500041E-1,9.948000908E0,1.735050082E0
7.981769910E-1,-9.000000544E-3,1.013505077E1,1.956000090E0
8.006839890E-1,1.390500069E-1,1.012305069E1,2.086950064E0
8.031916820E-1,2.250000089E-1,9.835050583E0,2.074949980E0
8.056984530E-1,2.269500047E-1,9.412050247E0,2.011049986E0
8.082043760E-1,7.395000011E-2,9.072000504E0,1.885950089E0
8.107113740E-1,-6.900000572E-2,8.968950272E0,1.606050134E0
8.132190660E-1,-1.930500120E-1,9.246000290E0,1.450050116E0
8.157258660E-1,-2.190000117E-1,9.739950180E0,1.663950086E0
8.182317890E-1,-9.300000221E-2,1.005300045E1,1.920000076E0
8.207388010E-1,1.429500133E-1,1.012995052E1,2.005950212E0
8.232462630E-1,3.229500055E-1,1.002900028E1,2.068050146E0
8.257532650E-1,4.090500176E-1,9.784950256E0,2.053950071E0
8.282591930E-1,3.610500097E-1,9.481050491E0,1.972050071E0
8.307661620E-1,1.770000011E-1,9.274950027E0,1.731000066E0
8.332736240E-1,-6.900000572E-2,9.193950653E0,1.302000046E0
8.357806260E-1,-2.749500275E-1,9.409049988E0,1.114950061E0
8.382865490E-1,-3.970500231E-1,9.766050339E0,1.443000078E0
8.407933160E-1,-3.490500152E-1,9.937950134E0,1.845000029E0
8.433010080E-1,-9.495000541E-2,9.871050835E0,2.106000185E0
8.458080100E-1,1.510500014E-1,9.782999992E0,2.226000071E0
8.483139330E-1,3.610500097E-1,9.652950287E0,2.229000092E0
8.508207010E-1,4.090500176E-1,9.526950836E0,2.180999994E0
8.533283930E-1,2.920500040E-1,9.388050079E0,1.905000091E0
8.558354000E-1,1.120500043E-1,9.253950119E0,1.399950027E0
8.583413230E-1,-1.020000055E-1,9.313050270E0,1.174950004E0
8.608480950E-1,-2.310000062E-1,9.591000557E0,1.434000015E0
8.633557880E-1,-1.909500062E-1,9.889950752E0,1.789950132E0
8.658625590E-1,-2.595000155E-2,1.007505035E1,2.014950037E0
8.683687130E-1,1.510500014E-1,1.016595078E1,2.202000141E0
8.708754800E-1,2.899500132E-1,9.955050468E0,2.226000071E0
8.733832050E-1,2.920500040E-1,9.574050903E0,2.098950148E0
8.758899760E-1,1.549500078E-1,9.202950478E0,1.819050074E0
8.783960530E-1,-1.095000096E-2,9.028950691E0,1.371000051E0
8.809028980E-1,-1.380000114E-1,9.214950562E0,1.216050029E0
8.834105900E-1,-1.789500117E-1,9.673050880E0,1.486050129E0
8.859173610E-1,-8.295000345E-2,1.008705044E1,1.801950097E0
8.884234380E-1,8.805000782E-2,1.025700092E1,1.993950129E0
8.909302820E-1,2.779500186E-1,1.009395027E1,2.104050159E0
8.934379750E-1,3.690000176E-1,9.673050880E0,2.116050005E0
8.959447460E-1,3.229500055E-1,9.241950035E0,2.014950037E0
8.984508230E-1,1.000500023E-1,9.012000084E0,1.755000114E0
9.009576530E-1,-1.260000020E-1,9.103050232E0,1.411950111E0
9.034652680E-1,-3.010500073E-1,9.499950409E0,1.407000065E0
9.059721160E-1,-3.460500240E-1,9.862050056E0,1.648950100E0
9.084781740E-1,-1.930500120E-1,9.979050636E0,1.897950053E0
9.109850180E-1,9.000000544E-3,9.907050133E0,2.059050083E0
9.134926340E-1,2.700000107E-1,9.856950760E0,2.178000212E0
9.159994820E-1,4.210500121E-1,9.782999992E0,2.182950020E0
9.185055590E-1,3.880500197E-1,9.655950546E0,2.032050133E0
9.210123260E-1,2.460000068E-1,9.430950165E0,1.654050112E0
9.235200230E-1,-4.050000105E-3,9.256050110E0,1.156050086E0
9.260268710E-1,-2.479500175E-1,9.337050438E0,1.017000079E0
9.285329200E-1,-3.679500222E-1,9.598050117E0,1.345050097E0
9.310396870E-1,-2.959500253E-1,9.802050591E0,1.702050090E0
9.335473790E-1,-7.605000585E-2,9.913950920E0,2.004000187E0
9.360542270E-1,1.459500045E-1,9.936000824E0,2.230950117E0
9.385603040E-1,3.229500055E-1,9.862050056E0,2.317050219E0
9.410671480E-1,2.970000207E-1,9.622050285E0,2.257050037E0
9.435747600E-1,1.459500045E-1,9.265950203E0,1.915050149E0
9.460816080E-1,-5.400000140E-2,9.031050682E0,1.426050067E0
9.485876850E-1,-2.239500135E-1,9.184050560E0,1.216050029E0
9.510944520E-1,-2.749500275E-1,9.630000114E0,1.447950125E0
9.536021440E-1,-1.740000099E-1,1.002000046E1,1.707000136E0
9.561089160E-1,4.305000231E-2,1.020900059E1,1.932000041E0
9.586148390E-1,2.320500165E-1,1.017105007E1,2.133000135E0
9.611218370E-1,3.760500252E-1,9.832950592E0,2.178000212E0
9.636295290E-1,3.300000131E-1,9.462000847E0,2.032050133E0
9.661363000E-1,1.600500047E-1,9.166950226E0,1.687050104E0
9.686424390E-1,-6.105000153E-2,9.105000496E0,1.276050091E0
9.711492060E-1,-2.430000156E-1,9.366000175E0,1.240050077E0
9.736569040E-1,-3.130500019E-1,9.724950790E0,1.495950103E0
9.761637520E-1,-2.359500080E-1,9.934050560E0,1.845000029E0
9.786698430E-1,-2.805000171E-2,1.000800037E1,2.164050102E0
9.811766100E-1,1.650000066E-1,9.934050560E0,2.347950220E0
9.836843020E-1,3.250500262E-1,9.754050255E0,2.266950130E0
9.861910740E-1,3.250500262E-1,9.526950836E0,2.068050146E0
9.886972270E-1,1.669500023E-1,9.321000099E0,1.692000031E0
9.912039950E-1,-6.900000572E-2,9.208050728E0,1.249050021E0
9.937116870E-1,-2.269500047E-1,9.286950111E0,1.161000013E0
9.962184580E-1,-2.839500010E-1,9.523950577E0,1.338000059E0
9.987243810E-1,-1.740000099E-1,9.787950516E0,1.675950050E0
1.001231379E0,3.795000166E-2,1.003695011E1,2.050950050E0
1.003738859E0,2.490000129E-1,1.018500042E1,2.346000195E0
1.006245861E0,3.610500097E-1,1.008405018E1,2.403000116E0
1.008751747E0,2.970000207E-1,9.673050880E0,2.212050200E0
1.011258745E0,1.050000042E-1,9.169950485E0,1.801950097E0
1.013766437E0,-1.279500127E-1,8.884950638E0,1.278000116E0
1.016273227E0,-3.100500107E-1,9.103050232E0,1.084050059E0
1.018779151E0,-3.660000265E-1,9.667950630E0,1.357050061E0
1.021286167E0,-2.290500104E-1,1.011300087E1,1.708950043E0
1.023793628E0,3.299999982E-2,1.021905041E1,1.956000090E0
1.026300626E0,2.490000129E-1,1.001700020E1,2.142000198E0
1.028806549E0,3.919500113E-1,9.670050621E0,2.146950006E0
1.031313316E0,3.780000210E-1,9.345000267E0,2.037000179E0
1.033821009E0,1.750500053E-1,9.160050392E0,1.804950118E0
1.036328011E0,-5.700000376E-2,9.151050568E0,1.395000100E0
1.038833934E0,-2.770500183E-1,9.390000343E0,1.300050020E0
1.041340701E0,-3.919500113E-1,9.703950882E0,1.567950130E0
1.043848393E0,-3.079500198E-1,9.855000496E0,1.864950061E0
1.046355395E0,-9.300000221E-2,9.867000580E0,2.125950098E0
1.048861318E0,1.600500047E-1,9.876000404E0,2.344050169E0
1.051368066E0,3.490500152E-1,9.808950424E0,2.341050148E0
1.053875758E0,3.829500079E-1,9.682050705E0,2.110949993E0
1.056382529E0,2.869500220E-1,9.430950165E0,1.719000101E0
1.058888664E0,4.800000042E-2,9.205950737E0,1.186950088E0
1.061395431E0,-1.600500047E-1,9.193950653E0,1.015050054E0
1.063903124E0,-2.890500128E-1,9.454950333E0,1.230000019E0
1.066409876E0,-2.359500080E-1,9.831000328E0,1.635000110E0
1.068916030E0,-7.605000585E-2,1.012005043E1,2.061000109E0
1.071422797E0,1.360500008E-1,1.017495060E1,2.365050077E0
1.073930489E0,2.779500186E-1,9.936000824E0,2.395950079E0
1.076437261E0,2.610000074E-1,9.451950073E0,2.253000021E0
1.078943337E0,8.400000632E-2,8.989950180E0,1.927050114E0
1.081450182E0,-1.189500093E-1,8.830050468E0,1.537050128E0
1.083957874E0,-2.629500031E-1,9.130949974E0,1.324050069E0
1.086464645E0,-2.820000052E-1,9.670050621E0,1.495950103E0
1.088970722E0,-1.450500041E-1,1.015395069E1,1.759050131E0
1.091477566E0,6.900000572E-2,1.027095032E1,1.933950067E0
1.093985259E0,2.749500275E-1,1.012005043E1,2.073000193E0
1.096492030E0,3.900000155E-1,9.799950600E0,2.080049992E0
1.098998102E0,3.490500152E-1,9.403950691E0,1.921950102E0
1.101504946E0,1.390500069E-1,9.164999962E0,1.680000067E0
1.104012561E0,-1.189500093E-1,9.145950317E0,1.354950070E0
1.106519424E0,-3.270000219E-1,9.391950607E0,1.233000040E0
1.109025501E0,-4.399500191E-1,9.747000694E0,1.479000092E0
1.111532269E0,-3.559500277E-1,9.895050049E0,1.801950097E0
1.114040028E0,-1.210500076E-1,9.796950340E0,2.083050013E0
1.116546799E0,1.410000026E-1,9.685050011E0,2.299950123E0
1.119052914E0,3.709500134E-1,9.646050453E0,2.341050148E0
1.121559681E0,4.330500066E-1,9.655950546E0,2.158950090E0
1.124067451E0,2.869500220E-1,9.570000648E0,1.885950089E0
1.126574222E0,5.205000192E-2,9.364050865E0,1.422000051E0
1.129080299E0,-1.980000138E-1,9.250950813E0,1.066950083E0
1.131587066E0,-3.610500097E-1,9.450000763E0,1.189050078E0
1.134094758E0,-3.679500222E-1,9.706050873E0,1.525050044E0
1.136601529E0,-1.279500127E-1,9.984000206E0,1.936050057E0
1.139107683E0,1.050000042E-1,1.016805077E1,2.284050226E0
1.141614451E0,2.920500040E-1,1.005600071E1,2.413050175E0
1.144122201E0,3.900000155E-1,9.700950623E0,2.266950130E0
1.146628972E0,2.800500095E-1,9.273000717E0,1.993950129E0
1.149135126E0,1.050000042E-1,9.016950607E0,1.587000132E0
1.151641888E0,-1.000500023E-1,9.163050652E0,1.300050020E0
1.154149581E0,-2.100000083E-1,9.618000031E0,1.318950057E0
1.156656429E0,-1.690500081E-1,1.006305027E1,1.594050050E0
1.159162506E0,-2.595000155E-2,1.021095085E1,1.845000029E0
1.161669273E0,1.410000026E-1,1.007505035E1,2.041949987E0
1.164176960E0,2.490000129E-1,9.742050171E0,2.104050159E0
1.166683808E0,2.460000068E-1,9.415950775E0,2.025000095E0
1.169189654E0,1.270500124E-1,9.226950645E0,1.903050065E0
1.171696691E0,-6.599999964E-2,9.270000458E0,1.683000088E0
1.174204153E0,-2.050500065E-1,9.462000847E0,1.399950027E0
1.176711145E0,-2.650500238E-1,9.709050179E0,1.405050039E0
1.179217299E0,-2.239500135E-1,9.790050507E0,1.635000110E0
1.181724066E0,-4.200000316E-2,9.771000862E0,1.905000091E0
1.184231758E0,2.200500071E-1,9.778050423E0,2.154000044E0
1.186738530E0,4.210500121E-1,9.859050751E0,2.272050142E0
1.189244453E0,4.639500082E-1,9.901950836E0,2.226000071E0
1.191751451E0,3.400500119E-1,9.754050255E0,1.945950150E0
1.194259143E0,7.905000448E-2,9.445050240E0,1.467000127E0
1.196765914E0,-2.100000083E-1,9.213000298E0,1.033950090E0
1.199271818E0,-4.129500091E-1,9.285000801E0,1.012050033E0
1.201778816E0,-4.420500100E-1,9.558000565E0,1.350000024E0
1.204286509E0,-2.580000162E-1,9.799950600E0,1.783050060E0
1.206793280E0,1.200000010E-2,9.997950554E0,2.142000198E0
1.209299203E0,2.700000107E-1,1.004895020E1,2.427000046E0
1.211806201E0,4.260000288E-1,9.880950928E0,2.382000208E0
1.214313663E0,3.900000155E-1,9.534000397E0,2.230950117E0
1.216820665E0,1.789500117E-1,9.124050140E0,1.864950061E0
1.219326588E0,-4.200000316E-2,9.004950523E0,1.354950070E0
1.221833586E0,-2.170500159E-1,9.298950195E0,1.194000006E0
1.224341047E0,-2.629500031E-1,9.816000938E0,1.426050067E0
1.226848049E0,-1.450500041E-1,1.013895035E1,1.704000115E0
1.229353972E0,6.405000389E-2,1.015095043E1,1.960050106E0
1.231860740E0,2.220000178E-1,9.912000656E0,2.152050018E0
1.234368432E0,3.490500152E-1,9.622050285E0,2.128050089E0
1.236875434E0,3.229500055E-1,9.394950867E0,2.038950205E0
1.239381371E0,1.339500099E-1,9.322950363E0,1.804950118E0
1.241888138E0,-5.700000376E-2,9.376049995E0,1.458000064E0
1.244395849E0,-1.909500062E-1,9.583950043E0,1.309050083E0
1.246902852E0,-2.719500065E-1,9.751950264E0,1.483950019E0
1.249408780E0,-1.519500017E-1,9.771000862E0,1.774050117E0
1.251915547E0,4.500000179E-2,9.754050255E0,2.026950121E0
1.254423239E0,2.509500086E-1,9.795000076E0,2.262000084E0
1.256930010E0,3.970500231E-1,9.819000244E0,2.290950060E0
1.259436164E0,3.490500152E-1,9.706050873E0,2.080049992E0
1.261943162E0,1.669500023E-1,9.466950417E0,1.743000031E0
1.264450624E0,-7.800000161E-2,9.237000465E0,1.302000046E0
1.266957626E0,-2.959500253E-1,9.202950478E0,1.087050080E0
1.269463472E0,-3.679500222E-1,9.370950699E0,1.222950101E0
1.271970316E0,-2.749500275E-1,9.640950203E0,1.606050134E0
1.274478008E0,1.395000052E-2,9.949950218E0,2.032050133E0
1.276984780E0,2.680500150E-1,1.017105007E1,2.407950163E0
1.279490886E0,4.279500246E-1,1.012005043E1,2.470050097E0
1.281997730E0,4.309500158E-1,9.736950874E0,2.281050205E0
1.284505393E0,2.389500141E-1,9.250950813E0,1.929000139E0
1.287012164E0,-2.295000106E-2,8.989950180E0,1.455000043E0
1.289518299E0,-2.269500047E-1,9.129000664E0,1.108050108E0
1.292025066E0,-3.490500152E-1,9.622050285E0,1.210950017E0
1.294532759E0,-2.770500183E-1,9.997950554E0,1.519950032E0
1.297039530E0,-3.299999982E-2,1.006500053E1,1.786050081E0
1.299545684E0,1.630500108E-1,9.922050476E0,2.049000025E0
1.302052451E0,3.370500207E-1,9.703950882E0,2.206950188E0
1.304560143E0,3.660000265E-1,9.517050743E0,2.145000219E0
1.307066915E0,2.370000184E-1,9.412050247E0,2.068050146E0
1.309572991E0,4.500000179E-2,9.316050529E0,1.702050090E0
1.312079759E0,-1.399500072E-1,9.346950531E0,1.345050097E0
1.314587532E0,-2.910000086E-1,9.499950409E0,1.375950098E0
1.317094303E0,-2.820000052E-1,9.634050369E0,1.651950121E0
1.319600366E0,-1.090500057E-1,9.735000610E0,1.957950115E0
1.322107210E0,1.309500039E-1,9.874050140E0,2.242950201E0
1.324614908E0,3.730500042E-1,1.000500011E1,2.394000053E0
1.327121679E0,4.500000179E-1,9.979050636E0,2.248050213E0
1.329627737E0,3.810000122E-1,9.697050095E0,1.900950074E0
1.332134581E0,1.579500139E-1,9.289950371E0,1.374000072E0
1.334642196E0,-1.210500076E-1,9.061950684E0,9.640500546E-1
1.337149049E0,-3.340500295E-1,9.199050903E0,1.012050033E0
1.339655126E0,-3.679500222E-1,9.577050209E0,1.386000037E0
1.342161971E0,-1.960500032E-1,9.943050385E0,1.864950061E0
1.344669586E0,6.705000252E-2,1.013205051E1,2.310000181E0
1.347176434E0,2.939999998E-1,1.009905052E1,2.527950048E0
1.349682511E0,3.610500097E-1,9.727950096E0,2.442000151E0
1.352189278E0,2.989500165E-1,9.274950027E0,2.145000219E0
1.354696971E0,6.000000238E-2,8.995050430E0,1.804950118E0
1.357203819E0,-1.380000114E-1,9.057000160E0,1.399950027E0
1.359709910E0,-2.599500120E-1,9.433050156E0,1.198950052E0
1.362216677E0,-2.820000052E-1,9.867000580E0,1.326000094E0
1.364724369E0,-1.170000061E-1,1.006005001E1,1.540950060E0
1.367231145E0,1.030500084E-1,1.004895020E1,1.816950083E0
1.369737299E0,2.850000262E-1,9.922050476E0,2.118000031E0
1.372244062E0,3.660000265E-1,9.687000275E0,2.134950161E0
1.374751754E0,3.010500073E-1,9.473999977E0,2.017950058E0
1.377258530E0,8.805000782E-2,9.306000710E0,1.852950096E0
1.379764684E0,-1.380000114E-1,9.306000710E0,1.501050115E0
1.382271451E0,-3.300000131E-1,9.483000755E0,1.339950085E0
1.384779144E0,-4.060500264E-1,9.651000023E0,1.506000042E0
1.387285915E0,-2.719500065E-1,9.679950714E0,1.762050033E0
1.389791838E0,-3.000000119E-2,9.655950546E0,2.050950050E0
1.392298836E0,2.460000068E-1,9.754050255E0,2.257050037E0
1.394806528E0,4.600500166E-1,9.912000656E0,2.238000154E0
1.397313299E0,4.639500082E-1,9.886050224E0,2.068050146E0
1.399819222E0,2.539499998E-1,9.685050011E0,1.819050074E0
1.402326220E0,-4.905000329E-2,9.286950111E0,1.336050034E0
1.404833922E0,-3.100500107E-1,9.136050224E0,9.880500436E-1
1.407340693E0,-4.590000212E-1,9.321000099E0,1.101000071E0
1.409846568E0,-3.820500076E-1,9.639000893E0,1.519950032E0
1.412353566E0,-1.480500102E-1,9.928950310E0,1.968000054E0
1.414861028E0,1.429500133E-1,1.010400009E1,2.422950029E0
1.417368030E0,3.919500113E-1,1.003905010E1,2.631000042E0
1.419874466E0,4.690500200E-1,9.727950096E0,2.437050104E0
1.422381041E0,3.420000076E-1,9.354000092E0,2.130000114E0
1.424888427E0,1.240500063E-1,9.133950233E0,1.711050034E0
1.427395429E0,-9.705000371E-2,9.190950394E0,1.216050029E0
1.429901357E0,-2.670000196E-1,9.598050117E0,1.110000014E0
1.432408321E0,-3.130500019E-1,9.967050552E0,1.294950008E0
1.434915783E0,-1.549500078E-1,1.004595089E1,1.549050093E0
1.437422785E0,7.050000131E-3,9.948000908E0,1.849950075E0
1.439928708E0,1.699500084E-1,9.724950790E0,2.073000193E0
1.442435706E0,2.320500165E-1,9.522000313E0,2.086950064E0
1.444943168E0,1.650000066E-1,9.378000259E0,2.041949987E0
1.447450170E0,3.795000166E-2,9.361050606E0,1.900950074E0
1.449956093E0,-1.720500141E-1,9.397050858E0,1.624950051E0
1.452463091E0,-2.770500183E-1,9.535950661E0,1.483950019E0
1.454970552E0,-2.650500238E-1,9.586050034E0,1.552950025E0
1.457477536E0,-8.295000345E-2,9.562050819E0,1.801950097E0
1.459983459E0,1.480500102E-1,9.699000359E0,2.085000038E0
1.462490227E0,3.709500134E-1,9.907050133E0,2.287950039E0
1.464997899E0,4.620000124E-1,1.010805035E1,2.266950130E0
1.467504670E0,3.349500299E-1,1.000995064E1,2.017950058E0
1.470010852E0,7.905000448E-2,9.625050545E0,1.678050041E0
1.472517619E0,-2.100000083E-1,9.244050026E0,1.158000112E0
1.475025312E0,-4.489500225E-1,9.153000832E0,8.830500245E-1
1.477532083E0,-5.260500312E-1,9.328050613E0,1.090950012E0
1.480038237E0,-3.700500131E-1,9.622050285E0,1.527000070E0
1.482545004E0,-6.900000572E-2,9.868950844E0,2.068050146E0
1.485052696E0,2.659500241E-1,1.004400063E1,2.548950195E0
1.487559467E0,4.830000103E-1,1.004100037E1,2.647950172E0
1.490065621E0,5.100000501E-1,9.792000771E0,2.479950190E0
1.492572388E0,3.210000098E-1,9.414000511E0,2.182950020E0
1.495080081E0,7.905000448E-2,9.088050842E0,1.648950100E0
1.497586852E0,-1.960500032E-1,9.130949974E0,1.134000063E0
1.500093002E0,-3.769500256E-1,9.522000313E0,1.087050080E0
1.502599769E0,-3.799500167E-1,9.889950752E0,1.312050104E0
1.505107475E0,-2.100000083E-1,1.000095081E1,1.582050085E0
1.507614247E0,9.000000544E-3,9.931050301E0,1.956000090E0
1.510120324E0,2.220000178E-1,9.820950508E0,2.209050179E0
1.512627201E0,3.420000076E-1,9.685050011E0,2.213999987E0
1.515134893E0,3.010500073E-1,9.565050125E0,2.133000135E0
1.517641664E0,1.480500102E-1,9.403950691E0,1.909950137E0
1.520147713E0,-3.795000166E-2,9.337050438E0,1.474050045E0
1.522654557E0,-1.879500151E-1,9.438000679E0,1.357050061E0
1.525162249E0,-2.290500104E-1,9.553050041E0,1.513050079E0
1.527669020E0,-1.140000075E-1,9.676950455E0,1.783050060E0
1.530175097E0,7.200000435E-2,9.799950600E0,2.074949980E0
1.532681941E0,2.509500086E-1,9.924000740E0,2.281050205E0
1.535189556E0,3.469500244E-1,9.952950478E0,2.209050179E0
1.537696405E0,2.680500150E-1,9.784950256E0,1.972050071E0
1.540202482E0,-9.000000544E-3,9.457050323E0,1.635000110E0
1.542709249E0,-2.269500047E-1,9.184050560E0,1.189050078E0
1.545216941E0,-3.940500319E-1,9.178950310E0,1.036050081E0
1.547723789E0,-4.039500058E-1,9.388050079E0,1.233000040E0
1.550229866E0,-2.310000062E-1,9.688950539E0,1.663950086E0
1.552736633E0,1.120500043E-1,9.979050636E0,2.161950111E0
1.555244346E0,3.780000210E-1,1.015605068E1,2.560950041E0
1.557751194E0,5.620500445E-1,1.008195019E1,2.635950089E0
1.560257266E0,5.070000291E-1,9.742050171E0,2.395950079E0
1.562764033E0,2.539499998E-1,9.330000877E0,2.014950037E0
1.565271720E0,-4.695000127E-2,9.096000671E0,1.501050115E0
1.567778568E0,-3.030000031E-1,9.214950562E0,1.051050067E0
1.570284645E0,-4.350000322E-1,9.595950127E0,1.057950020E0
1.572791423E0,-3.730500042E-1,9.910050392E0,1.294950008E0
1.575299115E0,-1.759500057E-1,9.964950562E0,1.627950072E0
1.577805886E0,8.595000207E-2,9.876000404E0,1.972050071E0
1.580312040E0,3.010500073E-1,9.802050591E0,2.212050200E0
1.582818807E0,3.829500079E-1,9.652950287E0,2.236050129E0
1.585326500E0,2.899500132E-1,9.519000053E0,2.164050102E0
1.587833271E0,8.805000782E-2,9.378000259E0,1.893000126E0
1.590339194E0,-1.050000042E-1,9.301050186E0,1.515000105E0
1.592846192E0,-3.030000031E-1,9.394950867E0,1.422000051E0
1.595353884E0,-3.060000241E-1,9.490950584E0,1.551000118E0
1.597860635E0,-1.260000020E-1,9.579000473E0,1.756950140E0
1.600366559E0,8.100000024E-2,9.795000076E0,2.110949993E0
1.602873572E0,3.160500228E-1,1.000500011E1,2.335950136E0
1.605381264E0,4.669500291E-1,1.009395027E1,2.262000084E0
1.607888126E0,3.780000210E-1,9.907050133E0,1.951050043E0
1.610393972E0,1.630500108E-1,9.493050575E0,1.579950094E0
1.612900984E0,-1.140000075E-1,9.142950058E0,1.102950096E0
1.615408446E0,-3.130500019E-1,9.115050316E0,9.400500655E-1
1.617915448E0,-3.970500231E-1,9.390000343E0,1.173000097E0
1.620421371E0,-2.719500065E-1,9.732000351E0,1.651950121E0
1.622928369E0,4.950000439E-3,9.967050552E0,2.170950174E0
1.625435830E0,2.539499998E-1,1.005300045E1,2.539950132E0
1.627942832E0,4.120500088E-1,9.912000656E0,2.620950222E0
1.630448755E0,4.210500121E-1,9.577050209E0,2.418000221E0
1.632955754E0,2.149500102E-1,9.297000885E0,2.065950155E0
1.635463446E0,-2.805000171E-2,9.133950233E0,1.561050057E0
1.637970232E0,-2.029500157E-1,9.294000626E0,1.120050073E0
1.640476155E0,-3.180000186E-1,9.631950378E0,1.048050046E0
1.642983105E0,-2.460000068E-1,9.859050751E0,1.222950101E0
1.645490797E0,-4.200000316E-2,9.937950134E0,1.513050079E0
1.647997569E0,1.600500047E-1,9.886050224E0,1.932000041E0
1.650503492E0,3.349500299E-1,9.820950508E0,2.245050192E0
1.653010231E0,4.020000100E-1,9.723000526E0,2.302950144E0
1.655517923E0,2.680500150E-1,9.631950378E0,2.272050142E0
1.658024925E0,8.595000207E-2,9.463950157E0,1.993950129E0
1.660530848E0,-1.429500133E-1,9.361050606E0,1.546050072E0
1.663037846E0,-3.319500089E-1,9.403950691E0,1.347000122E0
1.665545308E0,-3.370500207E-1,9.469050407E0,1.410000086E0
1.668052310E0,-1.840500087E-1,9.538950920E0,1.635000110E0
1.670558233E0,8.400000632E-2,9.711000443E0,1.927050114E0
1.673065000E0,2.939999998E-1,9.900000572E0,2.158950090E0
1.675572693E0,4.600500166E-1,1.008405018E1,2.169000149E0
1.678079695E0,3.810000122E-1,9.996000290E0,2.029950142E0
1.680585622E0,1.630500108E-1,9.627000809E0,1.756950140E0
1.683092389E0,-9.705000371E-2,9.153000832E0,1.254000068E0
1.685600062E0,-3.510000110E-1,9.025950432E0,1.009950042E0
1.688106833E0,-4.609500170E-1,9.229950905E0,1.204050064E0
1.690613005E0,-3.420000076E-1,9.613050461E0,1.612950087E0
1.693119773E0,-5.400000140E-2,9.937950134E0,2.122950077E0
1.695627451E0,2.220000178E-1,1.005600071E1,2.578050137E0
1.698134222E0,4.710000157E-1,1.000800037E1,2.676000118E0
1.700640376E0,5.389500260E-1,9.735000610E0,2.482050180E0
1.703147143E0,4.140000343E-1,9.505050659E0,2.130000114E0
1.705654836E0,1.600500047E-1,9.289950371E0,1.615950108E0
1.708161607E0,-1.069500074E-1,9.318000793E0,1.089000106E0
1.710667684E0,-2.820000052E-1,9.591000557E0,9.070500135E-1
1.713174528E0,-3.319500089E-1,9.782999992E0,1.069950104E0
1.715682220E0,-2.149500102E-1,9.888000488E0,1.366950035E0
1.718188991E0,-2.100000158E-2,9.820950508E0,1.816950083E0
1.720695068E0,1.819500029E-1,9.742050171E0,2.158950090E0
1.723201912E0,2.749500275E-1,9.652950287E0,2.344050169E0
1.725709605E0,2.659500241E-1,9.541050911E0,2.305050135E0
1.728216390E0,1.150500029E-1,9.487950325E0,2.169000149E0
1.730722467E0,-5.205000192E-2,9.397050858E0,1.789950132E0
1.733229307E0,-2.119500041E-1,9.382950783E0,1.470000029E0
1.735736923E0,-2.599500120E-1,9.370950699E0,1.411950111E0
1.738243771E0,-1.090500057E-1,9.460050583E0,1.561050057E0
1.740749925E0,1.080000028E-1,9.718050003E0,1.828950047E0
1.743256692E0,2.939999998E-1,1.005600071E1,2.122950077E0
1.745764384E0,4.120500088E-1,1.024695015E1,2.233050108E0
1.748271155E0,4.120500088E-1,1.011105061E1,2.071050167E0
1.750777232E0,1.669500023E-1,9.699000359E0,1.762050033E0
1.753283999E0,-1.170000061E-1,9.222000122E0,1.303950071E0
1.755791692E0,-3.610500097E-1,9.048000336E0,1.006950021E0
1.758298564E0,-5.089499950E-1,9.193950653E0,1.110000014E0
1.760804641E0,-4.210500121E-1,9.505050659E0,1.459950089E0
1.763311427E0,-1.260000020E-1,9.819000244E0,1.975050092E0
1.765819119E0,1.939500123E-1,9.997950554E0,2.463000059E0
1.768325944E0,4.690500200E-1,1.001700020E1,2.700000048E0
1.770832021E0,5.820000172E-1,9.874050140E0,2.599950075E0
1.773338788E0,4.710000157E-1,9.598050117E0,2.299950123E0
1.775846480E0,1.939500123E-1,9.334950447E0,1.813950062E0
1.778353328E0,-1.020000055E-1,9.196050644E0,1.194000006E0
1.780859405E0,-3.700500131E-1,9.364050865E0,9.379500151E-1
1.783366249E0,-4.780500233E-1,9.679950714E0,1.004999995E0
1.785873865E0,-3.750000298E-1,9.856950760E0,1.267950058E0
1.788380713E0,-1.309500039E-1,9.889950752E0,1.728000045E0
1.790886559E0,9.300000221E-2,9.859050751E0,2.170950174E0
1.793393557E0,3.589500189E-1,9.808950424E0,2.398950100E0
1.795901249E0,4.429500103E-1,9.720000267E0,2.403000116E0
1.798408103E0,3.760500252E-1,9.582000732E0,2.250000000E0
1.800913949E0,1.669500023E-1,9.402000427E0,1.840950131E0
1.803420947E0,-3.000000119E-2,9.318000793E0,1.474050045E0
1.805928624E0,-2.050500065E-1,9.378000259E0,1.338000059E0
1.808435472E0,-2.239500135E-1,9.570000648E0,1.471950054E0
1.810941549E0,-1.069500074E-1,9.744000435E0,1.731000066E0
1.813448321E0,4.995000362E-2,9.925950050E0,1.993950129E0
1.815956014E0,1.990500093E-1,1.002195072E1,2.118000031E0
1.818462799E0,2.680500150E-1,9.919050217E0,2.053950071E0
1.820968953E0,1.339500099E-1,9.655950546E0,1.837950110E0
1.823475720E0,-6.405000389E-2,9.313050270E0,1.527000070E0
1.825983427E0,-2.650500238E-1,9.130949974E0,1.209000111E0
1.828490199E0,-3.769500256E-1,9.175050735E0,1.170000076E0
1.830996122E0,-3.180000186E-1,9.390000343E0,1.414950013E0
1.833503120E0,-7.605000585E-2,9.747000694E0,1.857000113E0
1.836010812E0,2.130000144E-1,9.988950729E0,2.326950073E0
1.838517583E0,4.500000179E-1,1.011105061E1,2.664000034E0
1.841023506E0,5.580000281E-1,9.984000206E0,2.638050079E0
1.843530504E0,4.639500082E-1,9.664950371E0,2.323950052E0
1.846038197E0,1.890000105E-1,9.364050865E0,1.879050136E0
1.848544968E0,-1.210500076E-1,9.229950905E0,1.324050069E0
1.851050886E0,-3.970500231E-1,9.385050774E0,9.670500755E-1
1.853557884E0,-5.279999971E-1,9.661050797E0,9.400500655E-1
1.856065345E0,-4.609500170E-1,9.832950592E0,1.150950074E0
1.858572347E0,-1.909500062E-1,9.835050583E0,1.539000034E0
1.861078285E0,8.400000632E-2,9.784950256E0,2.025000095E0
1.863585283E0,3.450000286E-1,9.759000778E0,2.377050161E0
1.866092744E0,4.789500237E-1,9.751950264E0,2.490000010E0
1.868599761E0,4.140000343E-1,9.663000107E0,2.410950184E0
1.871105684E0,1.960500032E-1,9.463950157E0,2.073000193E0
1.873612460E0,-6.599999964E-2,9.289950371E0,1.585050106E0
1.876120153E0,-2.959500253E-1,9.318000793E0,1.393050075E0
1.878627155E0,-3.580500185E-1,9.400050163E0,1.393050075E0
1.881133078E0,-2.430000156E-1,9.571950912E0,1.528950095E0
1.883639845E0,-6.105000153E-2,9.811050415E0,1.885950089E0
1.886147537E0,1.909500062E-1,1.001700020E1,2.176050186E0
1.888654539E0,3.469500244E-1,1.010805035E1,2.200050116E0
1.891160462E0,3.570000231E-1,9.931050301E0,1.987050056E0
1.893667230E0,2.059500068E-1,9.535950661E0,1.692000031E0
1.896174922E0,-3.000000119E-2,9.175050735E0,1.303950071E0
1.898681693E0,-2.430000156E-1,9.109950066E0,1.089000106E0
1.901187833E0,-3.439500034E-1,9.325050354E0,1.198950052E0
1.903694600E0,-2.119500041E-1,9.652950287E0,1.612950087E0
1.906202264E0,-2.805000171E-2,9.898050308E0,2.106000185E0
1.908709035E0,2.010000050E-1,9.984000206E0,2.494050026E0
1.911215065E0,3.780000210E-1,9.879000664E0,2.563950062E0
1.913721909E0,3.919500113E-1,9.655950546E0,2.410950184E0
1.916229601E0,2.200500071E-1,9.414000511E0,2.071050167E0
1.918736372E0,-2.805000171E-2,9.256050110E0,1.623000026E0
1.921242526E0,-2.410500050E-1,9.301050186E0,1.150950074E0
1.923749294E0,-3.919500113E-1,9.534000397E0,9.600000381E-1
1.926256986E0,-3.679500222E-1,9.706050873E0,1.078950047E0
1.928763757E0,-1.450500041E-1,9.808950424E0,1.423950076E0
1.931269834E0,9.600000083E-2,9.867000580E0,1.915050149E0
1.933776678E0,3.400500119E-1,9.900000572E0,2.323950052E0
1.936284275E0,4.879500270E-1,9.871050835E0,2.479950190E0
1.938791123E0,4.039500058E-1,9.751950264E0,2.431950092E0
1.941297204E0,2.179500163E-1,9.547950745E0,2.164050102E0
1.943804048E0,-5.205000192E-2,9.337050438E0,1.687050104E0
1.946311663E0,-2.790000141E-1,9.270000458E0,1.306950092E0
1.948818511E0,-3.799500167E-1,9.357000351E0,1.233000040E0
1.951324665E0,-3.060000241E-1,9.522000313E0,1.398000121E0
1.953831432E0,-1.090500057E-1,9.759000778E0,1.735050082E0
1.956339125E0,1.789500117E-1,1.000095081E1,2.101950169E0
1.958845882E0,4.069500268E-1,1.013505077E1,2.236050129E0
1.961351959E0,4.450500309E-1,1.005795002E1,2.133000135E0
1.963858803E0,2.800500095E-1,9.670050621E0,1.885950089E0
1.966366419E0,7.050000131E-3,9.222000122E0,1.467000127E0
1.968873281E0,-2.719500065E-1,8.995050430E0,1.117950082E0
1.971379358E0,-4.300500154E-1,9.166950226E0,1.177050114E0
1.973886125E0,-4.279500246E-1,9.498000145E0,1.486050129E0
1.976393899E0,-1.860000044E-1,9.844950676E0,1.951050043E0
1.978900593E0,1.030500084E-1,1.002705002E1,2.415000200E0
1.981406747E0,3.829500079E-1,1.004895020E1,2.635950089E0
1.983913591E0,5.070000291E-1,9.840000153E0,2.521050215E0
1.986421207E0,4.519500136E-1,9.583950043E0,2.169000149E0
1.988928055E0,2.389500141E-1,9.358950615E0,1.732950091E0
1.991434132E0,-3.795000166E-2,9.244050026E0,1.216050029E0
1.993940976E0,-2.580000162E-1,9.427950859E0,9.019500613E-1
1.996448591E0,-3.610500097E-1,9.682050705E0,9.259500504E-1
1.998955416E0,-3.079500198E-1,9.838050842E0,1.258950114E0
2.001461493E0,-1.399500072E-1,9.868950844E0,1.726050138E0
2.003968279E0,1.050000042E-1,9.814050674E0,2.158950090E0
2.006475971E0,2.680500150E-1,9.712950706E0,2.386950016E0
2.008982790E0,3.420000076E-1,9.583950043E0,2.391000032E0
2.011488636E0,2.320500165E-1,9.454950333E0,2.269050121E0
2.013995605E0,1.695000008E-2,9.342000008E0,1.939050078E0
2.016503298E0,-1.570500135E-1,9.342000008E0,1.503000021E0
2.019010146E0,-2.820000052E-1,9.436050415E0,1.381050110E0
2.021516223E0,-2.220000178E-1,9.538950920E0,1.422000051E0
2.024022990E0,-1.095000096E-2,9.691950798E0,1.659000039E0
2.026530682E0,2.220000178E-1,9.943050385E0,1.948050141E0
2.029037454E0,4.000500143E-1,1.015605068E1,2.170950174E0
2.031543607E0,4.429500103E-1,1.015395069E1,2.149950027E0
2.034050375E0,2.899500132E-1,9.828000069E0,1.939050078E0
2.036558067E0,2.895000204E-2,9.412050247E0,1.594050050E0
2.039064838E0,-2.650500238E-1,9.096000671E0,1.216050029E0
2.041570973E0,-4.540500343E-1,9.139050484E0,1.117950082E0
2.044077740E0,-4.729500115E-1,9.406949997E0,1.359000087E0
2.046585428E0,-2.650500238E-1,9.706050873E0,1.786050081E0
2.049092199E0,4.305000231E-2,9.934050560E0,2.230950117E0
2.051598084E0,3.540000021E-1,1.002195072E1,2.583000183E0
2.054105082E0,5.620500445E-1,9.931050301E0,2.611950159E0
2.056612788E0,5.460000038E-1,9.732000351E0,2.346000195E0
2.059119560E0,3.229500055E-1,9.462000847E0,1.927050114E0
2.061625483E0,3.299999982E-2,9.246000290E0,1.351950049E0
2.064132481E0,-2.749500275E-1,9.256050110E0,9.400500655E-1
2.066639942E0,-4.519500136E-1,9.550050735E0,8.970000148E-1
2.069146944E0,-4.399500191E-1,9.754050255E0,1.110000014E0
2.071652867E0,-2.479500175E-1,9.820950508E0,1.525050044E0
2.074159865E0,1.695000008E-2,9.795000076E0,2.049000025E0
2.076667327E0,2.899500132E-1,9.747000694E0,2.383949995E0
2.079174329E0,4.399500191E-1,9.711000443E0,2.494050026E0
2.081680252E0,4.260000288E-1,9.652950287E0,2.418000221E0
2.084187053E0,2.850000262E-1,9.534000397E0,2.134950161E0
2.086694976E0,5.505000427E-2,9.369000435E0,1.632000089E0
2.089201789E0,-1.480500102E-1,9.342000008E0,1.303950071E0
2.091707713E0,-2.629500031E-1,9.442950249E0,1.210950017E0
2.094214466E0,-1.759500057E-1,9.625050545E0,1.431000113E0
2.096722158E0,-2.295000106E-2,9.859050751E0,1.752000093E0
2.099229160E0,1.390500069E-1,1.003395081E1,2.047049999E0
2.101735083E0,2.560500205E-1,1.003695011E1,2.128050089E0
2.104241850E0,2.299500108E-1,9.832950592E0,2.026950121E0
2.106749543E0,1.030500084E-1,9.483000755E0,1.795050144E0
2.109256314E0,-1.189500093E-1,9.164999962E0,1.443000078E0
2.111762468E0,-2.820000052E-1,9.130949974E0,1.233000040E0
2.114269235E0,-3.490500152E-1,9.301050186E0,1.351950049E0
2.116776927E0,-1.840500087E-1,9.582000732E0,1.684950113E0
2.119283703E0,9.795000404E-2,9.864000320E0,2.110949993E0
2.121789856E0,3.610500097E-1,1.008195019E1,2.547000170E0
2.124296624E0,5.500500202E-1,1.008900070E1,2.644950151E0
2.126804316E0,5.500500202E-1,9.910050392E0,2.454000235E0
2.129311318E0,3.330000043E-1,9.577050209E0,2.056050062E0
2.131817251E0,1.395000052E-2,9.316050529E0,1.531950116E0
2.134324018E0,-2.869500220E-1,9.282000542E0,1.015050054E0
2.136831711E0,-4.999500215E-1,9.495000839E0,8.110500574E-1
2.139338463E0,-5.089499950E-1,9.664950371E0,9.210000634E-1
2.141844617E0,-3.250500262E-1,9.772950172E0,1.270950079E0
2.144351384E0,-3.795000166E-2,9.790050507E0,1.843050122E0
2.146859076E0,2.610000074E-1,9.832950592E0,2.338950157E0
2.149365848E0,4.980000257E-1,9.808950424E0,2.545050144E0
2.151872001E0,5.170500278E-1,9.736950874E0,2.511000156E0
2.154378769E0,3.570000231E-1,9.511950493E0,2.287950039E0
2.156886461E0,9.105000645E-2,9.241950035E0,1.777950048E0
2.159393232E0,-1.860000044E-1,9.177000046E0,1.362000108E0
2.161899377E0,-3.870000243E-1,9.328050613E0,1.245000005E0
2.164406144E0,-3.799500167E-1,9.510000229E0,1.351950049E0
2.166913846E0,-1.930500120E-1,9.715950012E0,1.632000089E0
2.169420617E0,4.095000029E-2,9.964950562E0,2.011049986E0
2.171926670E0,2.899500132E-1,1.009905052E1,2.190000057E0
2.174433514E0,4.120500088E-1,1.005795002E1,2.121000051E0
2.176941139E0,3.420000076E-1,9.775950432E0,1.932000041E0
2.179447987E0,1.480500102E-1,9.345000267E0,1.576950073E0
2.181954064E0,-8.505000174E-2,9.084000587E0,1.206000090E0
2.184460909E0,-2.479500175E-1,9.148050308E0,1.137000084E0
2.186968524E0,-2.700000107E-1,9.394950867E0,1.378950119E0
2.189475372E0,-1.210500076E-1,9.771000862E0,1.869000077E0
2.191981449E0,7.605000585E-2,1.002000046E1,2.389050007E0
2.194488293E0,2.899500132E-1,1.006305027E1,2.619000196E0
2.196995909E0,4.000500143E-1,9.886050224E0,2.575950146E0
2.199502757E0,3.090000153E-1,9.550050735E0,2.278950214E0
2.202008829E0,1.120500043E-1,9.280050278E0,1.807050109E0
2.204515596E0,-1.480500102E-1,9.217950821E0,1.266000032E0
2.207023303E0,-3.490500152E-1,9.385050774E0,9.430500269E-1
2.209530151E0,-3.850500286E-1,9.663000107E0,9.840000272E-1
2.212036242E0,-2.670000196E-1,9.840000153E0,1.249050021E0
2.214543010E0,-6.000000052E-3,9.907050133E0,1.714050055E0
2.217050716E0,2.509500086E-1,9.900000572E0,2.180999994E0
2.219557564E0,4.600500166E-1,9.880950928E0,2.466000080E0
2.222063641E0,4.830000103E-1,9.766050339E0,2.509050131E0
2.224570408E0,3.420000076E-1,9.589050293E0,2.335950136E0
2.227078100E0,9.600000083E-2,9.391950607E0,1.957950115E0
2.229584949E0,-1.980000138E-1,9.273000717E0,1.462050080E0
2.232091026E0,-3.970500231E-1,9.328050613E0,1.230000019E0
2.234597793E0,-4.279500246E-1,9.473999977E0,1.254000068E0
2.237105485E0,-2.700000107E-1,9.651000023E0,1.482000113E0
2.239612261E0,-1.395000052E-2,9.864000320E0,1.837950110E0
2.242118415E0,2.700000107E-1,1.002705002E1,2.121000051E0
2.244625182E0,4.519500136E-1,1.005795002E1,2.152050018E0
2.247132851E0,4.000500143E-1,9.916950226E0,2.020050049E0
2.249639622E0,1.510500014E-1,9.529050827E0,1.735050082E0
2.252145545E0,-1.140000075E-1,9.139050484E0,1.290000081E0
2.254652543E0,-3.439500034E-1,9.013950348E0,1.096050024E0
2.257160230E0,-4.489500225E-1,9.202950478E0,1.282950044E0
2.259667002E0,-3.100500107E-1,9.529050827E0,1.659000039E0
2.262172925E0,-5.895000324E-2,9.883050919E0,2.176050186E0
2.264679923E0,2.320500165E-1,1.004400063E1,2.593050241E0
2.267187615E0,4.710000157E-1,1.003695011E1,2.703000069E0
2.269694463E0,5.050500035E-1,9.816000938E0,2.431950092E0
2.272200309E0,3.730500042E-1,9.499950409E0,2.013000011E0
2.274707307E0,1.150500029E-1,9.289950371E0,1.501050115E0
2.277214769E0,-1.549500078E-1,9.292050362E0,1.000050068E0
2.279721762E0,-3.439500034E-1,9.553050041E0,8.569500446E-1
2.282227685E0,-3.630000055E-1,9.808950424E0,1.033950090E0
2.284734683E0,-2.239500135E-1,9.886050224E0,1.417050123E0
2.287242145E0,-1.605000161E-2,9.862050056E0,1.921950102E0
2.289749147E0,1.960500032E-1,9.756000519E0,2.298000097E0
2.292255070E0,3.450000286E-1,9.670050621E0,2.499000072E0
2.294762068E0,3.300000131E-1,9.571950912E0,2.437050104E0
2.297269745E0,1.429500133E-1,9.445050240E0,2.213999987E0
2.299776516E0,-5.400000140E-2,9.342000008E0,1.768950105E0
2.302282439E0,-2.550000250E-1,9.366000175E0,1.419000030E0
2.304789437E0,-3.079500198E-1,9.427950859E0,1.336050034E0
2.307297130E0,-1.720500141E-1,9.538950920E0,1.458000064E0
2.309803901E0,3.795000166E-2,9.795000076E0,1.789950132E0
2.312309824E0,2.700000107E-1,1.008900070E1,2.121000051E0
2.314816591E0,4.020000100E-1,1.024500084E1,2.230950117E0
2.317324283E0,3.970500231E-1,1.005600071E1,2.092050076E0
2.319831084E0,1.699500084E-1,9.651000023E0,1.776000142E0
2.322337238E0,-1.189500093E-1,9.225000381E0,1.345050097E0
2.324844005E0,-3.750000298E-1,9.084000587E0,1.077000022E0
2.327351711E0,-5.070000291E-1,9.253950119E0,1.138950109E0
2.329858713E0,-4.369500279E-1,9.490950584E0,1.474050045E0
2.332364627E0,-1.549500078E-1,9.748950005E0,1.975050092E0
2.334871625E0,1.819500029E-1,9.955050468E0,2.463000059E0
2.337379087E0,4.549500346E-1,1.004400063E1,2.686050177E0
2.339886079E0,5.770500302E-1,9.940950394E0,2.554050207E0
2.342392002E0,4.360500276E-1,9.649050713E0,2.218950033E0
2.344898769E0,1.840500087E-1,9.265950203E0,1.687050104E0
2.347406461E0,-1.519500017E-1,9.091050148E0,1.078950047E0
2.349913463E0,-4.039500058E-1,9.280050278E0,8.179500103E-1
2.352419386E0,-5.160000324E-1,9.631950378E0,9.720000625E-1
2.354926154E0,-3.870000243E-1,9.850050926E0,1.336050034E0
2.357433846E0,-1.519500017E-1,9.910050392E0,1.845000029E0
2.359940848E0,1.360500008E-1,9.880950928E0,2.326950073E0
2.362446771E0,3.949500322E-1,9.816000938E0,2.514000177E0
2.364953557E0,4.519500136E-1,9.727950096E0,2.490000010E0
2.367461250E0,3.709500134E-1,9.555000305E0,2.274000168E0
2.369968007E0,1.510500014E-1,9.322950363E0,1.783050060E0
2.372474161E0,-3.495000303E-2,9.265950203E0,1.314000010E0
2.374980933E0,-2.190000117E-1,9.385050774E0,1.213050008E0
2.377488625E0,-2.220000178E-1,9.598050117E0,1.405050039E0
2.379995397E0,-1.090500057E-1,9.840000153E0,1.728000045E0
2.382501458E0,7.200000435E-2,1.002900028E1,2.025000095E0
2.385008318E0,2.299500108E-1,1.004895020E1,2.205000162E0
2.387516010E0,2.659500241E-1,9.898050308E0,2.104050159E0
2.390022781E0,1.549500078E-1,9.589050293E0,1.888950109E0
2.392528858E0,-7.095000148E-2,9.232050896E0,1.531950116E0
2.395035702E0,-2.650500238E-1,9.037950516E0,1.162950039E0
2.397543395E0,-3.889500201E-1,9.163050652E0,1.206000090E0
2.400050166E0,-2.910000086E-1,9.495000839E0,1.567950130E0
2.402556243E0,-1.800000109E-2,9.871050835E0,1.999050140E0
2.405063087E0,2.939999998E-1,1.015905094E1,2.425050020E0
2.407570702E0,5.220000148E-1,1.023000050E1,2.655000210E0
2.410077550E0,5.820000172E-1,9.996000290E0,2.551950216E0
2.412583631E0,4.260000288E-1,9.595950127E0,2.130000114E0
2.415090476E0,1.219500080E-1,9.214950562E0,1.612950087E0
2.417598091E0,-1.909500062E-1,9.121950150E0,1.089000106E0
2.420105118E0,-4.680000246E-1,9.378000259E0,8.760000467E-1
2.422612201E0,-5.500500202E-1,9.736950874E0,1.012050033E0
2.425117848E0,-3.940500319E-1,9.889950752E0,1.327950120E0
2.427625462E0,-1.330500096E-1,9.867000580E0,1.776000142E0
2.430132310E0,1.990500093E-1,9.826050758E0,2.260050058E0
2.432638411E0,4.450500309E-1,9.756000519E0,2.463000059E0
2.435145255E0,4.810500145E-1,9.685050011E0,2.410950184E0
2.437652870E0,3.540000021E-1,9.498000145E0,2.241000175E0
2.440159718E0,1.200000048E-1,9.277950287E0,1.777950048E0
2.442665819E0,-1.399500072E-1,9.199050903E0,1.324050069E0
2.445172663E0,-3.220500052E-1,9.337050438E0,1.266000032E0
2.447680298E0,-3.370500207E-1,9.546000481E0,1.447950125E0
2.450187146E0,-1.500000060E-1,9.754050255E0,1.762050033E0
2.452693214E0,6.000000238E-2,9.996000290E0,2.146950006E0
2.455200058E0,3.010500073E-1,1.013205051E1,2.250000000E0
2.457707687E0,3.970500231E-1,1.004595089E1,2.106000185E0
2.460214536E0,3.090000153E-1,9.688950539E0,1.869000077E0
2.462720613E0,8.805000782E-2,9.232050896E0,1.470000029E0
2.465227457E0,-1.500000060E-1,8.995050430E0,1.051050067E0
2.467735072E0,-2.820000052E-1,9.177000046E0,1.077000022E0
2.470241920E0,-2.650500238E-1,9.571950912E0,1.471950054E0
2.472747997E0,-1.020000055E-1,9.912000656E0,1.975050092E0
2.475254764E0,1.650000066E-1,1.013505077E1,2.442000151E0
2.477762457E0,3.640500307E-1,1.010595036E1,2.619000196E0
2.480269305E0,4.240500331E-1,9.808950424E0,2.479950190E0
2.482775382E0,2.850000262E-1,9.402000427E0,2.190000057E0
2.485282149E0,5.700000376E-2,9.136050224E0,1.720950127E0
2.487789841E0,-2.050500065E-1,9.109950066E0,1.173000097E0
2.490296613E0,-3.540000021E-1,9.426000595E0,9.330000281E-1
2.492802732E0,-3.850500286E-1,9.795000076E0,1.156050086E0
2.495309500E0,-1.909500062E-1,9.955050468E0,1.467000127E0
2.497817202E0,7.905000448E-2,9.984000206E0,1.857000113E0
2.500324050E0,3.349500299E-1,9.949950218E0,2.213999987E0
2.502830127E0,4.600500166E-1,9.826050758E0,2.391000032E0
2.505336894E0,4.480500221E-1,9.607950211E0,2.314950228E0
2.507844587E0,2.250000089E-1,9.439949989E0,2.098950148E0
2.510351358E0,-4.200000316E-2,9.294000626E0,1.630050063E0
2.512857512E0,-2.839500010E-1,9.349050522E0,1.302000046E0
2.515364279E0,-4.180500209E-1,9.507000923E0,1.321050048E0
2.517871971E0,-3.250500262E-1,9.577050209E0,1.498050094E0
2.520378743E0,-1.120500043E-1,9.675000191E0,1.798050046E0
2.522884685E0,1.549500078E-1,9.898050308E0,2.125950098E0
2.525391683E0,3.709500134E-1,1.006800079E1,2.242950201E0
2.527899366E0,4.189500213E-1,1.001505089E1,2.073000193E0
2.530406137E0,2.610000074E-1,9.670050621E0,1.867050052E0
2.532912060E0,7.050000131E-3,9.178950310E0,1.354950070E0
2.535419058E0,-2.410500050E-1,8.944950104E0,9.280500412E-1
2.537926755E0,-4.090500176E-1,9.096000671E0,1.114950061E0
2.540433526E0,-3.300000131E-1,9.502950668E0,1.611000061E0
2.542939449E0,-8.805000782E-2,9.916950226E0,2.118000031E0
2.545446447E0,1.960500032E-1,1.020705032E1,2.599950075E0
2.547953923E0,4.240500331E-1,1.018695068E1,2.683050156E0
2.550460925E0,4.830000103E-1,9.823050499E0,2.422950029E0
2.552966849E0,3.420000076E-1,9.352050781E0,2.059050083E0
2.555473847E0,9.105000645E-2,9.052050591E0,1.540950060E0
2.557981308E0,-1.360500008E-1,9.085950851E0,9.840000272E-1
2.560488310E0,-3.130500019E-1,9.490950584E0,9.169500470E-1
2.562994233E0,-3.130500019E-1,9.925950050E0,1.210950017E0
2.565501000E0,-1.380000114E-1,1.013205051E1,1.587000132E0
2.568008693E0,7.200000435E-2,1.006995010E1,1.927050114E0
2.570515695E0,2.269500047E-1,9.871050835E0,2.188050032E0
2.573021618E0,3.040500283E-1,9.523950577E0,2.248050213E0
2.575528361E0,2.509500086E-1,9.286950111E0,2.190000057E0
2.578036053E0,6.405000389E-2,9.196050644E0,1.939050078E0
2.580543055E0,-1.170000061E-1,9.253950119E0,1.561050057E0
2.583048978E0,-2.550000250E-1,9.507000923E0,1.462050080E0
2.585555746E0,-2.749500275E-1,9.663000107E0,1.663950086E0
2.588063438E0,-1.050000042E-1,9.736950874E0,1.896000147E0
2.590570223E0,1.309500039E-1,9.838050842E0,2.061000109E0
2.593076377E0,3.130500019E-1,1.007505035E1,2.185050011E0
2.595583144E0,4.330500066E-1,1.011600018E1,2.109000206E0
2.598090847E0,2.970000207E-1,9.904950142E0,1.836000085E0
2.600597618E0,7.395000011E-2,9.424050331E0,1.402950048E0
2.603103772E0,-2.220000178E-1,9.103050232E0,9.210000634E-1
2.605610539E0,-4.300500154E-1,9.133950233E0,9.019500613E-1
2.608118231E0,-4.540500343E-1,9.466950417E0,1.339950085E0
2.610625233E0,-2.509500086E-1,9.787950516E0,1.845000029E0
2.613131079E0,3.795000166E-2,1.003395081E1,2.298000097E0
2.615637924E0,2.970000207E-1,1.009395027E1,2.604000092E0
2.618145616E0,4.710000157E-1,9.912000656E0,2.545050144E0
2.620652618E0,4.189500213E-1,9.547950745E0,2.322000027E0
2.623158464E0,1.650000066E-1,9.175050735E0,1.900950074E0
2.625665308E0,-9.000000358E-2,8.985000610E0,1.303950071E0
2.628173001E0,-2.719500065E-1,9.175050735E0,9.640500546E-1
2.630679988E0,-3.630000055E-1,9.685050011E0,1.168050051E0
2.633185834E0,-2.770500183E-1,1.008405018E1,1.501050115E0
2.635692678E0,-4.695000127E-2,1.017795086E1,1.765950084E0
2.638200303E0,1.630500108E-1,1.005600071E1,2.071050167E0
2.640707151E0,3.280500174E-1,9.697050095E0,2.122950077E0
2.643213290E0,3.490500152E-1,9.376049995E0,2.062950134E0
2.645720058E0,1.789500117E-1,9.208050728E0,1.915050149E0
2.648227750E0,2.100000158E-2,9.217950821E0,1.579950094E0
2.650734521E0,-1.450500041E-1,9.421050072E0,1.423950076E0
2.653240598E0,-2.119500041E-1,9.715950012E0,1.624950051E0
2.655747442E0,-1.600500047E-1,9.840000153E0,1.948050141E0
2.658255134E0,2.400000021E-2,9.889950752E0,2.161950111E0
2.660761906E0,2.029500157E-1,9.913950920E0,2.194950104E0
2.663267983E0,2.970000207E-1,9.850050926E0,2.073000193E0
2.665774827E0,2.490000129E-1,9.688950539E0,1.869000077E0
2.668282519E0,5.505000427E-2,9.403950691E0,1.528950095E0
2.670789290E0,-1.720500141E-1,9.214950562E0,1.113000035E0
2.673295367E0,-2.959500253E-1,9.282000542E0,1.017000079E0
2.675802211E0,-3.220500052E-1,9.510000229E0,1.339950085E0
2.678309914E0,-1.620000005E-1,9.816000938E0,1.857000113E0
2.680816685E0,1.050000042E-1,1.006800079E1,2.250000000E0
2.683322762E0,3.420000076E-1,1.020900059E1,2.478000164E0
2.685829601E0,4.740000367E-1,1.003905010E1,2.479950190E0
2.688337216E0,4.120500088E-1,9.571950912E0,2.245050192E0
2.690844065E0,1.339500099E-1,9.084000587E0,1.816950083E0
2.693350128E0,-1.240500063E-1,8.890050888E0,1.276050091E0
2.695856972E0,-3.100500107E-1,9.250950813E0,1.057950020E0
2.698364582E0,-3.970500231E-1,9.820950508E0,1.354950070E0
2.700871430E0,-2.770500183E-1,1.025700092E1,1.699050069E0
2.703377507E0,-2.595000155E-2,1.025205040E1,1.849950075E0
2.705884274E0,1.770000011E-1,9.984000206E0,1.920000076E0
2.708391967E0,3.300000131E-1,9.582000732E0,1.917000055E0
2.710898815E0,3.210000098E-1,9.238950729E0,1.945950150E0
2.713404892E0,1.530000120E-1,9.127050400E0,1.834050059E0
2.715911659E0,-4.200000316E-2,9.184050560E0,1.503000021E0
2.718419351E0,-1.720500141E-1,9.469050407E0,1.426050067E0
2.720926185E0,-2.149500102E-1,9.766050339E0,1.800000072E0
2.723432261E0,-1.549500078E-1,9.925950050E0,2.140050173E0
2.725939029E0,4.500000179E-2,9.924000740E0,2.305050135E0
2.728446741E0,2.440500110E-1,9.907050133E0,2.320050001E0
2.730953512E0,3.610500097E-1,9.724950790E0,2.125950098E0
2.733459666E0,3.130500019E-1,9.507000923E0,1.837950110E0
2.735966428E0,1.579500139E-1,9.289950371E0,1.407000065E0
2.738474121E0,-8.805000782E-2,9.189000130E0,9.520500302E-1
2.740980892E0,-2.629500031E-1,9.366000175E0,9.739500284E-1
2.743487046E0,-2.939999998E-1,9.711000443E0,1.465050101E0
2.745993813E0,-1.240500063E-1,1.002900028E1,1.933950067E0
2.748501505E0,8.595000207E-2,1.021395016E1,2.263950109E0
2.751008277E0,2.939999998E-1,1.012995052E1,2.391000032E0
2.753514430E0,3.709500134E-1,9.670050621E0,2.296050072E0
2.756021198E0,2.800500095E-1,9.187050819E0,2.109000206E0
2.758528890E0,6.705000252E-2,8.836950302E0,1.776000142E0
2.761035661E0,-1.260000020E-1,8.902050018E0,1.423950076E0
2.763541815E0,-2.239500135E-1,9.402000427E0,1.447950125E0
2.766048582E0,-2.170500159E-1,1.006500053E1,1.813950062E0
2.768556265E0,-4.905000329E-2,1.038405037E1,1.965000153E0
2.771063036E0,1.699500084E-1,1.036005020E1,1.953000069E0
2.773569195E0,2.989500165E-1,9.996000290E0,1.927050114E0
2.776075962E0,3.280500174E-1,9.502950668E0,1.816950083E0
2.778583654E0,2.059500068E-1,9.117000580E0,1.618050098E0
2.781090434E0,9.000000544E-3,8.968950272E0,1.333050013E0
2.783596358E0,-1.740000099E-1,9.193950653E0,1.078950047E0
2.786103356E0,-3.370500207E-1,9.655950546E0,1.374000072E0
2.788610817E0,-3.150000274E-1,1.005795002E1,1.987050056E0
2.791117819E0,-1.480500102E-1,1.009605026E1,2.335950136E0
2.793623973E0,1.150500029E-1,9.910050392E0,2.431950092E0
2.796130740E0,3.450000286E-1,9.637050629E0,2.326950073E0
2.798638202E0,4.000500143E-1,9.340050697E0,2.061000109E0
2.801145204E0,2.820000052E-1,9.238950729E0,1.825950146E0
2.803651127E0,7.200000435E-2,9.205950737E0,1.336050034E0
2.806158125E0,-1.600500047E-1,9.285000801E0,9.640500546E-1
2.808665586E0,-3.390000165E-1,9.538950920E0,1.225050092E0
2.811172588E0,-2.959500253E-1,9.876000404E0,1.723050117E0
2.813678511E0,-9.495000541E-2,1.015605068E1,2.056050062E0
2.816185279E0,1.459500045E-1,1.030005074E1,2.233050108E0
2.818693183E0,3.400500119E-1,1.008900070E1,2.218950033E0
2.821199954E0,3.850500286E-1,9.535950661E0,2.097000122E0
2.823705896E0,2.560500205E-1,8.997000694E0,1.873950124E0
2.826212894E0,4.500000179E-2,8.719950676E0,1.378950119E0
2.828720586E0,-1.429500133E-1,8.977950096E0,1.221000075E0
2.831227358E0,-2.100000083E-1,9.646050453E0,1.635000110E0
2.833733281E0,-1.620000005E-1,1.026600075E1,2.089950085E0
2.836240279E0,5.505000427E-2,1.057305050E1,2.205000162E0
2.838747740E0,2.080500126E-1,1.036005020E1,2.130000114E0
2.841254742E0,3.040500283E-1,9.697050095E0,1.941000104E0
2.843760665E0,2.389500141E-1,9.076050758E0,1.740000129E0
2.846267663E0,8.400000632E-2,8.772000313E0,1.429050088E0
2.848775125E0,-1.120500043E-1,8.899050713E0,1.075049996E0
2.851282127E0,-2.509500086E-1,9.469050407E0,1.197000027E0
2.853788050E0,-2.869500220E-1,1.008000088E1,1.807050109E0
2.856294817E0,-1.399500072E-1,1.033605003E1,2.257050037E0
2.858802486E0,8.805000782E-2,1.025205040E1,2.341050148E0
2.861309488E0,2.820000052E-1,9.958050728E0,2.305050135E0
2.863815440E0,3.919500113E-1,9.522000313E0,2.170950174E0
2.866322207E0,3.250500262E-1,9.181950569E0,1.885950089E0
2.868829899E0,1.290000081E-1,9.016950607E0,1.395000100E0
2.871336906E0,-1.140000075E-1,9.079050064E0,9.169500470E-1
2.873842829E0,-3.010500073E-1,9.439949989E0,1.053000093E0
2.876349597E0,-3.799500167E-1,9.984000206E0,1.707000136E0
2.878857298E0,-2.430000156E-1,1.030905056E1,2.098950148E0
2.881364069E0,-9.000000544E-3,1.036005020E1,2.134950161E0
2.883870204E0,2.130000144E-1,1.006005001E1,2.038950205E0
2.886376971E0,3.090000153E-1,9.462000847E0,1.912950039E0
2.888884663E0,2.269500047E-1,8.959050179E0,1.816950083E0
2.891391435E0,7.200000435E-2,8.748000145E0,1.491000056E0
2.893897589E0,-1.069500074E-1,8.992950439E0,1.270950079E0
2.896404356E0,-2.310000062E-1,9.625050545E0,1.695000052E0
2.898912048E0,-1.879500151E-1,1.024200058E1,2.242950201E0
2.901418819E0,-4.050000105E-3,1.050795078E1,2.296050072E0
2.903924896E0,2.269500047E-1,1.030695057E1,2.073000193E0
2.906431740E0,3.400500119E-1,9.748950005E0,1.917000055E0
2.908939428E0,3.010500073E-1,9.199050903E0,1.798050046E0
2.911446199E0,1.549500078E-1,8.893950462E0,1.570050120E0
2.913952276E0,-6.405000389E-2,8.976000786E0,1.084050059E0
2.916459120E0,-2.149500102E-1,9.406949997E0,1.017000079E0
2.918966812E0,-3.060000241E-1,9.931050301E0,1.558050036E0
2.921473599E0,-2.550000250E-1,1.027800083E1,2.101950169E0
2.923979753E0,-6.599999964E-2,1.030905056E1,2.241000175E0
2.926486520E0,1.309500039E-1,1.003695011E1,2.212050200E0
2.928994212E0,2.800500095E-1,9.495000839E0,2.166000128E0
2.931500983E0,2.730000019E-1,9.021000862E0,2.050950050E0
2.934007137E0,1.600500047E-1,8.832000732E0,1.615950108E0
2.936513904E0,2.400000021E-2,8.950050354E0,1.182000041E0
2.939021597E0,-1.189500093E-1,9.487950325E0,1.431000113E0
2.941528368E0,-1.810500026E-1,1.011600018E1,2.044049978E0
2.944034425E0,-9.495000541E-2,1.047705078E1,2.272050142E0
2.946541269E0,7.395000011E-2,1.047000027E1,2.029950142E0
2.949048884E0,1.939500123E-1,1.003200054E1,1.750050068E0
2.951555700E0,1.870500147E-1,9.382950783E0,1.603950024E0
2.954061776E0,6.405000389E-2,8.929950714E0,1.479000092E0
2.956568640E0,-1.050000042E-1,8.803050041E0,1.204050064E0
2.959076332E0,-2.479500175E-1,9.112050056E0,1.141950011E0
2.961583103E0,-3.030000031E-1,9.766050339E0,1.755000114E0
2.964089180E0,-1.999500096E-1,1.030200005E1,2.358000040E0
2.966596024E0,3.795000166E-2,1.047000027E1,2.394000053E0
2.969103717E0,2.749500275E-1,1.015605068E1,2.089950085E0
2.971610488E0,3.520500064E-1,9.499950409E0,1.903050065E0
2.974116565E0,3.010500073E-1,8.989950180E0,1.867050052E0
2.976623409E0,1.120500043E-1,8.820000648E0,1.618050098E0
2.979131101E0,-4.200000316E-2,8.992950439E0,1.129950047E0
2.981637872E0,-1.960500032E-1,9.543000221E0,1.182000041E0
2.984143949E0,-3.010500073E-1,1.014195061E1,1.843050122E0
2.986650717E0,-2.389500141E-1,1.042695045E1,2.254950047E0
2.989158409E0,-5.400000140E-2,1.041195011E1,2.226000071E0
2.991665281E0,1.120500043E-1,1.002900028E1,2.035050154E0
2.994171358E0,2.269500047E-1,9.421050072E0,1.941000104E0
2.996678207E0,2.110500038E-1,8.935050011E0,1.759050131E0
2.999185823E0,1.270500124E-1,8.723999977E0,1.237050056E0
3.001692671E0,3.795000166E-2,8.899050713E0,9.550500512E-1
3.004198748E0,-7.095000148E-2,9.567000389E0,1.551000118E0
3.006705515E0,-7.304999977E-2,1.027095032E1,2.358000040E0
3.009213187E0,1.395000052E-2,1.071705055E1,2.551950216E0
3.011720035E0,1.510500014E-1,1.053705025E1,2.202000141E0
3.014226112E0,2.130000144E-1,9.804000854E0,1.804950118E0
3.016732880E0,1.480500102E-1,8.947050095E0,1.582050085E0
3.019240572E0,-6.900000572E-2,8.449049950E0,1.321050048E0
3.021747420E0,-1.980000138E-1,8.535000801E0,1.042950034E0
3.024253497E0,-2.939999998E-1,9.258000374E0,1.374000072E0
3.026760264E0,-2.460000068E-1,1.022295094E1,2.253000021E0
3.029267957E0,-9.000000544E-3,1.079595089E1,2.679000139E0
3.031774834E0,2.700000107E-1,1.068795013E1,2.362950087E0
3.034280911E0,4.120500088E-1,1.004100037E1,1.920000076E0
3.036787678E0,4.069500268E-1,9.229950905E0,1.738050103E0
3.039295380E0,2.779500186E-1,8.703000069E0,1.587000132E0
3.041802151E0,1.905000024E-2,8.679000854E0,1.186950088E0
3.044308305E0,-1.759500057E-1,9.096000671E0,8.950500488E-1
3.046815072E0,-3.250500262E-1,9.792000771E0,1.357050061E0
3.049322765E0,-3.730500042E-1,1.040805054E1,2.149950027E0
3.051829520E0,-2.070000172E-1,1.061805058E1,2.449050188E0
3.054335674E0,-4.050000105E-3,1.030695057E1,2.260050058E0
3.056842441E0,1.510500014E-1,9.607950211E0,2.035050154E0
3.059350133E0,2.370000184E-1,8.953950882E0,1.912950039E0
3.061856905E0,2.220000178E-1,8.611950874E0,1.618050098E0
3.064362828E0,1.410000026E-1,8.668950081E0,1.063050032E0
3.066869826E0,1.395000052E-2,9.214950562E0,1.114950061E0
3.069377518E0,-7.304999977E-2,1.004595089E1,2.065950155E0
3.071884289E0,-2.805000171E-2,1.072095013E1,2.688000202E0
3.074390212E0,1.339500099E-1,1.091295052E1,2.521050215E0
3.076897210E0,2.460000068E-1,1.043895054E1,1.992000103E0
3.079404918E0,2.269500047E-1,9.457050323E0,1.587000132E0
3.081911689E0,1.170000061E-1,8.559000015E0,1.324050069E0
3.084417612E0,-1.240500063E-1,8.254950523E0,9.379500151E-1
3.086924614E0,-2.770500183E-1,8.698050499E0,9.019500613E-1
3.089432306E0,-3.510000110E-1,9.742050171E0,1.711050034E0
3.091939040E0,-1.999500096E-1,1.067295074E1,2.595000029E0
3.094445193E0,4.995000362E-2,1.098000050E1,2.700000048E0
3.096951961E0,3.330000043E-1,1.048395061E1,2.230950117E0
3.099459682E0,4.240500331E-1,9.538950920E0,1.848000050E0
3.101966453E0,3.880500197E-1,8.680950165E0,1.702050090E0
3.104472607E0,2.179500163E-1,8.392050743E0,1.459950089E0
3.106979374E0,5.700000376E-2,8.698050499E0,1.084050059E0
3.109487067E0,-1.090500057E-1,9.462000847E0,1.276050091E0
3.111993838E0,-2.050500065E-1,1.034295082E1,2.041949987E0
3.114499761E0,-1.480500102E-1,1.077900028E1,2.491950035E0
3.117006759E0,-1.605000161E-2,1.060395050E1,2.253000021E0
3.119514221E0,9.600000083E-2,9.973950386E0,1.957950115E0
3.122021223E0,1.000500023E-1,9.234000206E0,1.879050136E0
3.124527175E0,1.099500060E-1,8.719950676E0,1.600950122E0
3.127034173E0,5.205000192E-2,8.563950539E0,1.021950006E0
3.129541865E0,-2.805000171E-2,8.938050270E0,8.020500541E-1
3.132048621E0,-8.100000024E-2,9.688950539E0,1.600950122E0
3.134554544E0,-5.205000192E-2,1.055100060E1,2.572950125E0
3.137061542E0,1.290000081E-1,1.097295094E1,2.739000082E0
3.139569235E0,2.800500095E-1,1.064205074E1,2.209050179E0
3.142076006E0,3.280500174E-1,9.711000443E0,1.783050060E0
3.144581929E0,2.179500163E-1,8.748000145E0,1.567950130E0
3.147088686E0,-2.295000106E-2,8.250000000E0,1.153950095E0
3.149596609E0,-2.290500104E-1,8.442000389E0,7.920000553E-1
3.152103150E0,-3.420000076E-1,9.318000793E0,1.411950111E0
3.154609304E0,-3.340500295E-1,1.042005062E1,2.542050123E0
3.157116071E0,-1.210500076E-1,1.106100082E1,2.887050152E0
3.159623763E0,2.110500038E-1,1.094895077E1,2.350950003E0
3.162130534E0,3.709500134E-1,1.008195019E1,1.804950118E0
3.164636688E0,3.919500113E-1,8.971050262E0,1.594050050E0
3.167143686E0,2.749500275E-1,8.329050064E0,1.366950035E0
3.169651148E0,1.170000061E-1,8.413050652E0,8.640000224E-1
3.172158150E0,-1.950000064E-3,9.166950226E0,9.240000248E-1
3.174664073E0,-1.399500072E-1,1.022595024E1,1.864950061E0
3.177170840E0,-1.570500135E-1,1.092495060E1,2.590050220E0
3.179678532E0,-4.500000179E-2,1.093905067E1,2.487000227E0
3.182185534E0,4.500000179E-2,1.018500042E1,2.025000095E0
3.184691457E0,4.995000362E-2,9.217950821E0,1.852950096E0
3.187198235E0,3.299999982E-2,8.449049950E0,1.714050055E0
3.189705927E0,-2.805000171E-2,8.218950272E0,1.186950088E0
3.192212919E0,-3.000000119E-2,8.622000694E0,8.779500127E-1
3.194718837E0,-6.599999964E-2,9.571950912E0,1.623000026E0
3.197225604E0,-6.000000052E-3,1.067100048E1,2.716950178E0
3.199733297E0,1.669500023E-1,1.126500034E1,2.947050095E0
3.202240299E0,3.610500097E-1,1.096095085E1,2.275950193E0
3.204746222E0,4.159500301E-1,9.981000900E0,1.702050090E0
3.207252989E0,2.779500186E-1,8.832000732E0,1.333050013E0
3.209760681E0,1.695000008E-2,8.119050026E0,8.350500464E-1
3.212267683E0,-2.170500159E-1,8.209950447E0,4.350000322E-1
3.214773606E0,-3.919500113E-1,9.093000412E0,1.033950090E0
3.217280374E0,-4.399500191E-1,1.031895065E1,2.379000187E0
3.219788066E0,-2.629500031E-1,1.113300037E1,3.136050224E0
3.222294858E0,6.000000238E-2,1.106400013E1,2.748000145E0
3.224801012E0,2.989500165E-1,1.009605026E1,2.049000025E0
3.227307779E0,3.610500097E-1,8.890050888E0,1.735050082E0
3.229815472E0,2.850000262E-1,8.167050362E0,1.527000070E0
3.232322243E0,1.669500023E-1,8.193000793E0,9.430500269E-1
3.234828315E0,3.299999982E-2,8.995050430E0,8.040000200E-1
3.237335159E0,-1.020000055E-1,1.017795086E1,1.776000142E0
3.239842851E0,-8.295000345E-2,1.104705048E1,2.662050009E0
3.242349603E0,1.395000052E-2,1.119795036E1,2.523000002E0
3.244855680E0,9.600000083E-2,1.055100060E1,1.927050114E0
3.247362524E0,8.100000024E-2,9.450000763E0,1.699050069E0
3.249870216E0,1.950000064E-3,8.467950821E0,1.575000048E0
3.252376987E0,-8.100000024E-2,8.049000740E0,1.072050095E0
3.254883064E0,-1.429500133E-1,8.350950241E0,6.889500618E-1
3.257389908E0,-1.860000044E-1,9.352050781E0,1.455000043E0
3.259897600E0,-1.570500135E-1,1.058205032E1,2.719050169E0
3.262404372E0,5.505000427E-2,1.131705093E1,3.105000257E0
3.264910449E0,2.779500186E-1,1.108500099E1,2.487000227E0
3.267417293E0,3.850500286E-1,1.004895020E1,1.825950146E0
3.269924985E0,3.420000076E-1,8.806050301E0,1.458000064E0
3.272431756E0,1.699500084E-1,7.969950199E0,9.049500227E-1
3.274937896E0,-4.905000329E-2,8.068050385E0,4.830000103E-1
3.277444663E0,-2.310000062E-1,9.048000336E0,1.072050095E0
3.279952279E0,-3.130500019E-1,1.038795090E1,2.430000067E0
3.282459127E0,-2.100000083E-1,1.127700043E1,3.102000237E0
3.284965180E0,4.995000362E-2,1.118295097E1,2.614050150E0
3.287472024E0,2.010000050E-1,1.019700050E1,2.001000166E0
3.289979653E0,2.220000178E-1,8.985000610E0,1.780950069E0
3.292486502E0,1.429500133E-1,8.169000626E0,1.387950063E0
3.294992579E0,2.895000204E-2,8.085000038E0,7.129500508E-1
3.297499423E0,-7.304999977E-2,8.820000648E0,7.440000176E-1
3.300007038E0,-1.519500017E-1,1.003395081E1,1.810050130E0
3.302513886E0,-9.705000371E-2,1.105395031E1,2.728950024E0
3.305019963E0,3.105000220E-2,1.128600025E1,2.607000113E0
3.307526807E0,1.410000026E-1,1.054905033E1,1.989000082E0
3.310034500E0,1.309500039E-1,9.352050781E0,1.776000142E0
3.312541271E0,3.105000220E-2,8.377050400E0,1.666050076E0
3.315047348E0,-5.400000140E-2,7.920000553E0,1.027050018E0
3.317554192E0,-1.240500063E-1,8.341050148E0,6.960000396E-1
3.320061884E0,-1.720500141E-1,9.473999977E0,1.692000031E0
3.322568656E0,-1.210500076E-1,1.073595047E1,2.956050158E0
3.325074732E0,4.500000179E-2,1.145595074E1,3.082950115E0
3.327581500E0,2.610000074E-1,1.113795090E1,2.302950144E0
3.330089284E0,3.090000153E-1,1.000800037E1,1.756950140E0
3.332595978E0,2.560500205E-1,8.716950417E0,1.393050075E0
3.335102180E0,9.795000404E-2,7.936950207E0,7.540500164E-1
3.337609024E0,-5.895000324E-2,8.085000038E0,2.920500040E-1
3.340116640E0,-2.190000117E-1,9.184050560E0,1.075049996E0
3.342623488E0,-2.939999998E-1,1.057005024E1,2.578050137E0
3.345129565E0,-1.429500133E-1,1.139205074E1,3.091050148E0
3.347636409E0,7.200000435E-2,1.111200047E1,2.536950111E0
3.350144024E0,1.870500147E-1,9.985950470E0,2.004000187E0
3.352650872E0,1.939500123E-1,8.704950333E0,1.807050109E0
3.355156949E0,1.099500060E-1,7.920000553E0,1.342950106E0
3.357663765E0,4.305000231E-2,8.049000740E0,7.510500550E-1
3.360171380E0,-4.500000179E-2,9.032999992E0,1.093950033E0
3.362678238E0,-1.170000061E-1,1.040505028E1,2.299950123E0
3.365184315E0,4.950000439E-3,1.133400059E1,2.929950237E0
3.367691081E0,1.219500080E-1,1.131300068E1,2.415000200E0
3.370198774E0,1.770000011E-1,1.043595028E1,1.792950034E0
3.372705622E0,1.170000061E-1,9.208050728E0,1.606050134E0
3.375211670E0,7.050000131E-3,8.185950279E0,1.222950101E0
3.377718437E0,-1.120500043E-1,7.836000443E0,5.310000181E-1
3.380226129E0,-2.100000083E-1,8.461050034E0,6.630000472E-1
3.382732977E0,-2.980500162E-1,9.799950600E0,2.056050062E0
3.385239054E0,-1.690500081E-1,1.111605072E1,3.238950253E0
3.387745822E0,6.405000389E-2,1.147305012E1,3.045000076E0
3.390253514E0,2.460000068E-1,1.074300098E1,2.218950033E0
3.392760362E0,3.040500283E-1,9.382950783E0,1.780950069E0
3.395266439E0,1.960500032E-1,8.298000336E0,1.486050129E0
3.397773206E0,9.795000404E-2,7.860000610E0,7.230000496E-1
3.400280883E0,-4.695000127E-2,8.410950661E0,4.879500270E-1
3.402787655E0,-1.860000044E-1,9.687000275E0,1.596000075E0
3.405293800E0,-1.879500151E-1,1.098495007E1,2.916000128E0
3.407800567E0,-3.000000119E-2,1.149000072E1,2.913000107E0
3.410308259E0,1.630500108E-1,1.090800095E1,2.157000065E0
3.412815030E0,2.320500165E-1,9.688950539E0,1.759050131E0
3.415321217E0,1.650000066E-1,8.545050621E0,1.612950087E0
3.417827984E0,7.605000585E-2,7.960950375E0,9.910500646E-1
3.420335236E0,-1.095000096E-2,8.250000000E0,5.290500522E-1
3.422842339E0,-1.549500078E-1,9.313050270E0,1.315950036E0
3.425348381E0,-1.879500151E-1,1.063995075E1,2.650050163E0
3.427855384E0,-4.500000179E-2,1.138695049E1,2.983050108E0
3.430363076E0,1.030500084E-1,1.113105011E1,2.359950066E0
3.432869848E0,1.699500084E-1,1.003395081E1,1.924950123E0
3.435375771E0,1.579500139E-1,8.788949966E0,1.690050125E0
3.437882769E0,1.000500023E-1,7.918050289E0,1.117950082E0
3.440390461E0,2.595000155E-2,7.915050507E0,5.689499974E-1
3.442897309E0,-7.095000148E-2,8.940000534E0,1.161000013E0
3.445403386E0,-9.000000358E-2,1.045800018E1,2.596950054E0
3.447910153E0,-1.950000064E-3,1.146600056E1,3.121950150E0
3.450417846E0,1.720500141E-1,1.138005066E1,2.442000151E0
3.452924694E0,2.110500038E-1,1.032600021E1,1.848000050E0
3.455430540E0,1.549500078E-1,8.977950096E0,1.564950109E0
3.457937538E0,4.095000029E-2,8.013000488E0,9.880500436E-1
3.460445000E0,-8.805000782E-2,7.876950264E0,3.990000188E-1
3.462952006E0,-2.119500041E-1,8.784000397E0,9.049500227E-1
3.465457929E0,-2.530499995E-1,1.020195007E1,2.386950016E0
3.467964913E0,-1.309500039E-1,1.130595016E1,3.193050146E0
3.470472379E0,9.300000221E-2,1.129800034E1,2.683050156E0
3.472979381E0,2.490000129E-1,1.027605057E1,2.011049986E0
3.475485304E0,2.629500031E-1,9.000000000E0,1.824000120E0
3.477992302E0,1.990500093E-1,8.146950722E0,1.489050031E0
3.480499995E0,1.429500133E-1,8.020950317E0,6.769500375E-1
3.483006766E0,3.299999982E-2,8.787000656E0,7.320000529E-1
3.485512689E0,-8.805000782E-2,1.012305069E1,2.073000193E0
3.488019687E0,-7.605000585E-2,1.123395061E1,2.952000141E0
3.490527379E0,1.950000064E-3,1.144005013E1,2.542050123E0
3.493034150E0,6.000000238E-2,1.063500023E1,1.869000077E0
3.495540304E0,5.700000376E-2,9.330000877E0,1.678050041E0
3.498046860E0,2.100000158E-2,8.241000175E0,1.359000087E0
3.500554783E0,-3.000000119E-2,7.756950378E0,6.559500098E-1
3.503061544E0,-5.205000192E-2,8.353050232E0,7.030500174E-1
3.505567467E0,-8.295000345E-2,9.772950172E0,2.047049999E0
3.508074465E0,-2.805000171E-2,1.112805080E1,3.205050230E0
3.510582144E0,1.360500008E-1,1.155195045E1,2.952000141E0
3.513088915E0,2.659500241E-1,1.082400036E1,2.137950182E0
3.515594862E0,2.419500053E-1,9.462000847E0,1.711050034E0
3.518101860E0,1.720500141E-1,8.229000092E0,1.290000081E0
3.520609552E0,5.505000427E-2,7.743000507E0,6.240000129E-1
3.523116323E0,-5.700000376E-2,8.392050743E0,6.049500108E-1
3.525622246E0,-1.600500047E-1,9.799950600E0,1.845000029E0
3.528129244E0,-1.759500057E-1,1.112100029E1,3.049950123E0
3.530636937E0,-2.805000171E-2,1.146600056E1,2.881950140E0
3.533143708E0,1.429500133E-1,1.075695038E1,2.092050076E0
3.535649631E0,1.600500047E-1,9.498000145E0,1.756950140E0
3.538156629E0,1.410000026E-1,8.428050041E0,1.479000092E0
3.540664062E0,9.795000404E-2,7.933950424E0,7.510500550E-1
3.543171064E0,5.205000192E-2,8.322000504E0,5.050500035E-1
3.545676987E0,-4.500000179E-2,9.541050911E0,1.540950060E0
3.548183985E0,-4.905000329E-2,1.086000061E1,2.815050125E0
3.550691446E0,2.595000155E-2,1.146405029E1,2.916000128E0
3.553198473E0,8.595000207E-2,1.097700024E1,2.253000021E0
3.555704396E0,1.170000061E-1,9.771000862E0,1.897950053E0
3.558211394E0,2.595000155E-2,8.530950546E0,1.671000123E0
3.560718856E0,-9.000000544E-3,7.768950462E0,9.259500504E-1
3.563225877E0,-5.205000192E-2,8.032950401E0,5.190000534E-1
3.565731800E0,-1.140000075E-1,9.241950035E0,1.494000077E0
3.568238567E0,-1.069500074E-1,1.083900070E1,2.937000036E0
3.570746294E0,5.505000427E-2,1.167705059E1,3.049950123E0
3.573253296E0,2.340000123E-1,1.131495094E1,2.242950201E0
3.575759219E0,2.989500165E-1,1.004400063E1,1.690050125E0
3.578265981E0,2.340000123E-1,8.607000351E0,1.309050083E0
3.580773673E0,1.200000048E-1,7.819050312E0,6.820500493E-1
3.583280675E0,-3.000000119E-2,8.039999962E0,3.799500167E-1
3.585786612E0,-1.500000060E-1,9.214950562E0,1.369050026E0
3.588293380E0,-2.310000062E-1,1.071705055E1,2.812950134E0
3.590801303E0,-1.210500076E-1,1.141095066E1,3.094950199E0
3.593308074E0,1.950000064E-3,1.094205093E1,2.437050104E0
3.595813997E0,7.395000011E-2,9.759000778E0,2.014950037E0
3.598320764E0,9.600000083E-2,8.623950005E0,1.810050130E0
3.600828457E0,9.795000404E-2,7.963050365E0,1.158000112E0
3.603335228E0,1.219500080E-1,8.226000786E0,6.510000229E-1
3.605841382E0,1.000500023E-1,9.342000008E0,1.297050118E0
3.608348144E0,8.400000632E-2,1.071405029E1,2.514000177E0
3.610855836E0,1.360500008E-1,1.143495083E1,2.698050022E0
3.613362607E0,1.750500053E-1,1.114995098E1,2.061000109E0
3.615868766E0,1.080000028E-1,1.010805035E1,1.759050131E0
3.618375764E0,-1.395000052E-2,8.830050468E0,1.576950073E0
3.620883236E0,-1.189500093E-1,7.920000553E0,8.880000710E-1
3.623390238E0,-1.960500032E-1,7.864950180E0,5.089499950E-1
3.625896161E0,-2.550000250E-1,8.872950554E0,1.393050075E0
3.628402942E0,-2.340000123E-1,1.042200089E1,2.880000114E0
3.630910634E0,-5.895000324E-2,1.145400047E1,3.256050110E0
3.633417636E0,1.819500029E-1,1.124295044E1,2.497050047E0
3.635923483E0,2.989500165E-1,1.012305069E1,1.908000112E0
3.638430327E0,2.970000207E-1,8.842050552E0,1.615950108E0
3.640938019E0,2.370000184E-1,8.005949974E0,9.090000391E-1
3.643445021E0,1.669500023E-1,8.071050644E0,3.469500244E-1
3.645950867E0,2.400000021E-2,9.124050140E0,1.096050024E0
3.648457711E0,-1.050000042E-1,1.057005024E1,2.518050194E0
3.650965404E0,-9.705000371E-2,1.142295074E1,2.944050074E0
3.653472401E0,-9.000000544E-3,1.112805080E1,2.286000013E0
3.655978324E0,4.950000439E-3,1.002000046E1,1.879050136E0
3.658485072E0,-3.795000166E-2,8.796000481E0,1.731000066E0
3.660992764E0,-4.500000179E-2,7.989000320E0,1.158000112E0
3.663499780E0,-2.595000155E-2,8.077950478E0,6.270000339E-1
3.666005703E0,-6.599999964E-2,9.093000412E0,1.254000068E0
3.668512452E0,-4.200000316E-2,1.050300026E1,2.530050039E0
3.671020144E0,8.595000207E-2,1.132200050E1,2.880000114E0
3.673526915E0,2.010000050E-1,1.114500046E1,2.275950193E0
3.676033069E0,2.320500165E-1,1.014405060E1,1.845000029E0
3.678539836E0,1.579500139E-1,8.905950546E0,1.630050063E0
3.681047529E0,8.805000782E-2,8.008950233E0,1.089000106E0
3.683554300E0,-1.605000161E-2,7.948950291E0,6.679500341E-1
3.686060454E0,-1.140000075E-1,8.964000702E0,1.342950106E0
3.688567221E0,-1.860000044E-1,1.043895054E1,2.715000153E0
3.691074913E0,-1.189500093E-1,1.143705082E1,3.079050064E0
3.693581675E0,2.895000204E-2,1.120005035E1,2.334000111E0
3.696087829E0,6.900000572E-2,1.016100025E1,1.795050144E0
3.698594640E0,9.600000083E-2,8.859000206E0,1.513050079E0
3.701102332E0,1.050000042E-1,8.011050224E0,8.089500666E-1
3.703609122E0,6.195000187E-2,8.097000122E0,3.970500231E-1
3.706115199E0,-1.950000064E-3,9.160050392E0,1.245000005E0
3.708622028E0,-3.000000119E-2,1.054395008E1,2.572950125E0
3.711129721E0,1.905000024E-2,1.124805069E1,2.959050179E0
3.713636492E0,9.795000404E-2,1.088400078E1,2.371950150E0
3.716142569E0,8.400000632E-2,9.835050583E0,1.989000082E0
3.718649413E0,4.995000362E-2,8.848950386E0,1.945950150E0
3.721157105E0,4.950000439E-3,8.206950188E0,1.345050097E0
3.723663876E0,-6.000000052E-3,8.248050690E0,7.009500265E-1
3.726169953E0,-7.800000161E-2,9.181950569E0,1.333050013E0
3.728676797E0,-9.495000541E-2,1.049895096E1,2.482050180E0
3.731184490E0,-1.800000109E-2,1.127400017E1,2.619000196E0
3.733691256E0,9.600000083E-2,1.110705090E1,1.981950045E0
3.736197333E0,1.480500102E-1,1.011105061E1,1.642050028E0
3.738704177E0,1.309500039E-1,8.928000450E0,1.506000042E0
3.741211835E0,9.300000221E-2,8.064000130E0,9.760500193E-1
3.743718607E0,3.600000218E-2,8.056050301E0,6.340500116E-1
3.746224684E0,-7.095000148E-2,9.073950768E0,1.552950025E0
3.748731528E0,-1.189500093E-1,1.047900009E1,2.893950224E0
3.751239124E0,-8.295000345E-2,1.123095036E1,3.100050211E0
3.753745972E0,-1.950000064E-3,1.089105034E1,2.362950087E0
3.756252097E0,4.305000231E-2,9.799950600E0,1.873950124E0
3.758758864E0,4.800000042E-2,8.677050591E0,1.612950087E0
3.761266571E0,6.195000187E-2,8.095050812E0,1.042950034E0
3.763773342E0,6.405000389E-2,8.422950745E0,7.180500627E-1
3.766279496E0,2.595000155E-2,9.574050903E0,1.506000042E0
3.768786263E0,2.100000158E-2,1.080495071E1,2.628000021E0
3.771293955E0,7.905000448E-2,1.121895027E1,2.581050158E0
3.773800727E0,1.429500133E-1,1.065900040E1,1.864950061E0
3.776306804E0,9.600000083E-2,9.630000114E0,1.636950135E0
3.778813648E0,3.299999982E-2,8.734050751E0,1.639950037E0
3.781321340E0,-1.605000161E-2,8.217000008E0,1.102950096E0
3.783828111E0,-6.405000389E-2,8.442000389E0,8.590500355E-1
3.786334188E0,-1.170000061E-1,9.451950073E0,1.732950091E0
3.788840931E0,-1.380000114E-1,1.058505058E1,2.796000242E0
3.791348624E0,-7.304999977E-2,1.110195065E1,2.794050217E0
3.793855472E0,4.095000029E-2,1.068105030E1,2.118000031E0
3.796361559E0,8.595000207E-2,9.694050789E0,1.848000050E0
3.798868403E0,8.400000632E-2,8.751000404E0,1.647000074E0
3.801376085E0,9.600000083E-2,8.145000458E0,9.259500504E-1
3.803882857E0,1.030500084E-1,8.401050568E0,6.600000262E-1
3.806388938E0,3.299999982E-2,9.543000221E0,1.719000101E0
3.808895783E0,-6.000000052E-3,1.084800053E1,2.905950069E0
3.811403398E0,4.995000362E-2,1.130295086E1,2.707050085E0
3.813910246E0,9.105000645E-2,1.071900082E1,1.909950137E0
3.816416323E0,5.205000192E-2,9.606000900E0,1.603950024E0
3.818923167E0,1.950000064E-3,8.583000183E0,1.453050017E0
3.821430860E0,0.000000000E0,8.167050362E0,8.659500480E-1
3.823937631E0,-3.795000166E-2,8.546999931E0,7.660500407E-1
3.826443708E0,-9.705000371E-2,9.673050880E0,1.867050052E0
3.828950552E0,-8.505000174E-2,1.076895046E1,2.899050236E0
3.831458172E0,2.100000158E-2,1.101795006E1,2.688000202E0
3.833965020E0,8.400000632E-2,1.036005020E1,1.996050119E0
3.836471077E0,1.290000081E-1,9.361050606E0,1.807050109E0
3.838977922E0,1.309500039E-1,8.571000099E0,1.687050104E0
3.841485537E0,1.549500078E-1,8.305050850E0,1.138950109E0
3.843992381E0,1.459500045E-1,8.763000488E0,9.259500504E-1
3.846498458E0,8.400000632E-2,9.888000488E0,1.852950096E0
3.849005302E0,2.595000155E-2,1.087695026E1,2.671950102E0
3.851512918E0,7.050000131E-3,1.109700012E1,2.311950207E0
3.854019737E0,-2.805000171E-2,1.051305008E1,1.726050138E0
3.856525814E0,-8.295000345E-2,9.543000221E0,1.611000061E0
3.859032658E0,-1.000500023E-1,8.535000801E0,1.378950119E0
3.861540273E0,-8.295000345E-2,7.993950367E0,7.750500441E-1
3.864047121E0,-6.405000389E-2,8.446949959E0,9.049500227E-1
3.866553198E0,-7.800000161E-2,9.756000519E0,2.233050108E0
3.869060042E0,-4.050000105E-3,1.105395031E1,3.250950098E0
3.871567658E0,1.309500039E-1,1.131495094E1,2.857950211E0
3.874074506E0,2.250000089E-1,1.042005062E1,1.963050127E0
3.876580583E0,2.370000184E-1,9.184050560E0,1.644000053E0
3.879087350E0,1.770000011E-1,8.326950073E0,1.378950119E0
3.881595023E0,1.000500023E-1,8.194950104E0,7.300500274E-1
3.884101872E0,1.395000052E-2,8.964000702E0,8.730000257E-1
3.886607949E0,-1.069500074E-1,1.019700050E1,2.140050173E0
3.889114716E0,-1.360500008E-1,1.110000038E1,2.881950140E0
3.891622408E0,-4.905000329E-2,1.099395084E1,2.350950003E0
3.894129256E0,-9.000000544E-3,1.011300087E1,1.690050125E0
3.896635333E0,-6.000000052E-3,9.130949974E0,1.630050063E0
3.899142119E0,2.400000021E-2,8.430000305E0,1.516950130E0
3.901649812E0,9.105000645E-2,8.242950439E0,9.259500504E-1
3.904156660E0,1.050000042E-1,8.887050629E0,1.072050095E0
3.906662737E0,1.309500039E-1,1.010100079E1,2.217000008E0
3.909169581E0,1.270500124E-1,1.100100040E1,2.872950077E0
3.911677196E0,1.410000026E-1,1.103505039E1,2.410950184E0
3.914184045E0,7.200000435E-2,1.025700092E1,1.857000113E0
3.916690121E0,1.395000052E-2,9.141000748E0,1.720950127E0
3.919196889E0,-4.905000329E-2,8.265000343E0,1.366950035E0
3.921704600E0,-5.700000376E-2,8.025000572E0,8.020500541E-1
3.924211371E0,-7.095000148E-2,8.775000572E0,1.117950082E0
3.926717525E0,-1.189500093E-1,1.022805023E1,2.407950163E0
3.929224311E0,-4.695000127E-2,1.129800034E1,3.025950193E0
3.931732004E0,8.400000632E-2,1.121895027E1,2.350950003E0
3.934238770E0,1.480500102E-1,1.021095085E1,1.672950029E0
3.936744924E0,1.600500047E-1,8.992950439E0,1.422000051E0
3.939251691E0,1.429500133E-1,8.143050194E0,9.690000415E-1
3.941759383E0,1.120500043E-1,8.137949944E0,5.380499959E-1
3.944266170E0,1.950000064E-3,9.091050148E0,1.222950101E0
3.946772323E0,-7.095000148E-2,1.047000027E1,2.619000196E0
3.949279091E0,-9.495000541E-2,1.116900063E1,3.073950052E0
3.951786783E0,-3.000000119E-2,1.079295063E1,2.391000032E0
3.954293554E0,-2.295000106E-2,9.736950874E0,1.855050087E0
3.956799477E0,-4.695000127E-2,8.832000732E0,1.867050052E0
3.959306475E0,-3.495000303E-2,8.325000763E0,1.459950089E0
3.961814168E0,4.500000179E-2,8.398950577E0,7.800000310E-1
3.964321016E0,8.100000024E-2,9.289950371E0,1.237050056E0
3.966827088E0,1.030500084E-1,1.050105095E1,2.398950100E0
3.969333855E0,1.789500117E-1,1.118295097E1,2.554050207E0
3.971841547E0,1.960500032E-1,1.099905014E1,1.920000076E0
3.974348395E0,1.390500069E-1,1.009395027E1,1.570050120E0
3.976854472E0,4.305000231E-2,8.980950356E0,1.573050022E0
3.979361235E0,-1.095000096E-2,8.143050194E0,1.149000049E0
3.981868927E0,-7.800000161E-2,8.061000824E0,7.350000143E-1
3.984375789E0,-1.620000005E-1,9.031050682E0,1.576950073E0
3.986881866E0,-1.879500151E-1,1.046295071E1,2.923050165E0
3.989388633E0,-1.140000075E-1,1.125495052E1,3.165000200E0
3.991896326E0,1.395000052E-2,1.087695026E1,2.358000040E0
3.994403174E0,1.099500060E-1,9.763950348E0,1.801950097E0
3.996909251E0,1.909500062E-1,8.656949997E0,1.516950130E0
3.999416018E0,2.029500157E-1,8.119050026E0,9.400500655E-1
4.001923710E0,2.029500157E-1,8.502000809E0,6.270000339E-1
4.004430558E0,1.720500141E-1,9.700950623E0,1.489050031E0
4.006936635E0,7.905000448E-2,1.092000008E1,2.667000055E0
4.009443417E0,5.205000192E-2,1.120305061E1,2.626050234E0
4.011951110E0,2.595000155E-2,1.049400043E1,1.837950110E0
4.014457881E0,-9.495000541E-2,9.427950859E0,1.632000089E0
4.016964059E0,-1.429500133E-1,8.602050781E0,1.648950100E0
4.019470826E0,-1.639500111E-1,8.230950356E0,1.138950109E0
4.021978532E0,-1.399500072E-1,8.593050003E0,9.379500151E-1
4.024485304E0,-9.705000371E-2,9.630000114E0,1.852950096E0
4.026991458E0,4.950000439E-3,1.070505047E1,2.820000172E0
4.029498230E0,1.530000120E-1,1.105695057E1,2.608950138E0
4.032005922E0,2.419500053E-1,1.052295017E1,1.896000147E0
4.034512693E0,2.370000184E-1,9.586050034E0,1.690050125E0
4.037018847E0,1.630500108E-1,8.716950417E0,1.600950122E0
4.039525614E0,1.120500043E-1,8.203050613E0,1.006950021E0
4.042033307E0,6.000000238E-2,8.494950294E0,8.089500666E-1
4.044540078E0,-6.405000389E-2,9.637050629E0,1.936050057E0
4.047046001E0,-1.480500102E-1,1.088205051E1,2.952000141E0
4.049552999E0,-9.000000358E-2,1.122600079E1,2.655000210E0
4.052060691E0,-5.205000192E-2,1.056105042E1,1.861950040E0
4.054567463E0,-6.900000572E-2,9.427950859E0,1.527000070E0
4.057073386E0,-1.800000109E-2,8.478000641E0,1.314000010E0
4.059580384E0,4.500000179E-2,8.157000542E0,7.390500307E-1
4.062088081E0,8.595000207E-2,8.763000488E0,8.419500589E-1
4.064594852E0,6.405000389E-2,1.002195072E1,2.059050083E0
4.067100775E0,1.120500043E-1,1.094205093E1,2.913000107E0
4.069607773E0,1.549500078E-1,1.093005085E1,2.559000015E0
4.072115466E0,1.360500008E-1,1.010595036E1,1.968000054E0
4.074622295E0,5.700000376E-2,9.108000755E0,1.857000113E0
4.077128141E0,-6.000000052E-3,8.458950043E0,1.687050104E0
4.079635139E0,-1.395000052E-2,8.320050240E0,1.117950082E0
4.082142831E0,-2.100000158E-2,8.952000618E0,1.129950047E0
4.084649603E0,-5.400000140E-2,1.015095043E1,2.185050011E0
4.087155526E0,-6.000000052E-3,1.106400013E1,2.650050163E0
4.089662524E0,6.000000238E-2,1.103295040E1,2.035050154E0
4.092170216E0,6.195000187E-2,1.018500042E1,1.462050080E0
4.094676987E0,3.105000220E-2,9.184050560E0,1.455000043E0
4.097182910E0,3.105000220E-2,8.386950493E0,1.194000006E0
4.099689898E0,3.795000166E-2,8.167050362E0,7.300500274E-1
4.102197591E0,-1.950000064E-3,8.926050186E0,1.297050118E0
4.104704352E0,-2.295000106E-2,1.021095085E1,2.716950178E0
4.107210506E0,-1.395000052E-2,1.110705090E1,3.274950266E0
4.109717264E0,4.305000231E-2,1.089600086E1,2.542050123E0
4.112224956E0,7.200000435E-2,9.898050308E0,1.845000029E0
4.114731732E0,1.395000052E-2,8.892000198E0,1.714050055E0
4.117237886E0,2.400000021E-2,8.278950691E0,1.249050021E0
4.119744654E0,3.299999982E-2,8.406000137E0,6.460500360E-1
4.122252115E0,-9.000000544E-3,9.385050774E0,1.198950052E0
4.124759117E0,4.950000439E-3,1.059405041E1,2.401050091E0
4.127265040E0,8.100000024E-2,1.118295097E1,2.644950151E0
4.129772038E0,1.309500039E-1,1.075695038E1,1.960050106E0
4.132279500E0,9.300000221E-2,9.748950005E0,1.540950060E0
4.134786502E0,3.105000220E-2,8.812950134E0,1.608000040E0
4.137292656E0,1.905000024E-2,8.274000168E0,1.333050013E0
4.139799408E0,4.950000439E-3,8.374950409E0,9.240000248E-1
4.142307100E0,-3.299999982E-2,9.325050354E0,1.603950024E0
4.144813871E0,-4.200000316E-2,1.054695034E1,2.776950121E0
4.147319804E0,-2.805000171E-2,1.109505081E1,2.880000114E0
4.149826802E0,-4.050000105E-3,1.071405029E1,2.133000135E0
4.152334495E0,1.950000064E-3,9.664950371E0,1.699050069E0
4.154841271E0,0.000000000E0,8.667000771E0,1.513050079E0
4.157347194E0,7.200000435E-2,8.080050468E0,1.036050081E0
4.159854177E0,7.200000435E-2,8.383950233E0,7.470000386E-1
4.162361869E0,1.030500084E-1,9.603000641E0,1.707000136E0
4.164868641E0,6.900000572E-2,1.096605015E1,2.925000191E0
4.167374564E0,9.300000221E-2,1.137000084E1,2.788950205E0
4.169881331E0,1.050000042E-1,1.068105030E1,1.873950124E0
4.172389254E0,2.400000021E-2,9.469050407E0,1.471950054E0
4.174896025E0,-4.500000179E-2,8.440050125E0,1.276050091E0
4.177401948E0,-7.800000161E-2,8.059050560E0,7.870500088E-1
4.179908946E0,-9.000000358E-2,8.605050087E0,8.020500541E-1
4.182416639E0,-1.120500043E-1,9.879000664E0,2.041949987E0
4.184923410E0,-7.304999977E-2,1.097700024E1,3.082950115E0
4.187429333E0,6.000000238E-2,1.105695057E1,2.760000229E0
4.189936317E0,1.270500124E-1,1.020900059E1,1.945950150E0
4.192444009E0,1.200000048E-1,9.172050476E0,1.780950069E0
4.194950771E0,1.099500060E-1,8.503950119E0,1.750050068E0
4.197456694E0,1.480500102E-1,8.286000252E0,1.065000057E0
4.199963692E0,1.339500099E-1,8.839050293E0,9.190500379E-1
4.202471149E0,9.105000645E-2,1.005300045E1,1.981950045E0
4.204978151E0,5.205000192E-2,1.107105064E1,2.712000132E0
4.207484060E0,4.305000231E-2,1.117395020E1,2.224050045E0
4.209991052E0,-1.800000109E-2,1.043400097E1,1.567950130E0
4.212498514E0,-1.020000055E-1,9.270000458E0,1.443000078E0
4.215005516E0,-1.279500127E-1,8.274000168E0,1.270950079E0
4.217511439E0,-9.000000358E-2,7.918050289E0,7.510500550E-1
4.220018437E0,-4.695000127E-2,8.650050163E0,1.129950047E0
4.222525898E0,-4.905000329E-2,1.014900017E1,2.559000015E0
4.225032900E0,4.095000029E-2,1.120500088E1,3.331950188E0
4.227538824E0,1.600500047E-1,1.114005089E1,2.727000237E0
4.230045822E0,2.059500068E-1,1.006500053E1,1.869000077E0
4.232553283E0,1.750500053E-1,8.875050545E0,1.537050128E0
4.235060285E0,1.429500133E-1,8.158950806E0,1.173000097E0
4.237566193E0,9.795000404E-2,8.269950867E0,7.200000286E-1
4.240072960E0,1.200000010E-2,9.286950111E0,1.170000076E0
4.242580663E0,-2.595000155E-2,1.063500023E1,2.398950100E0
4.245087665E0,-4.500000179E-2,1.123395061E1,2.752950191E0
4.247593583E0,-3.795000166E-2,1.082700062E1,2.041949987E0
4.250100581E0,-7.095000148E-2,9.763950348E0,1.575000048E0
4.252608061E0,-1.020000055E-1,8.800950050E0,1.561050057E0
4.255115063E0,-7.095000148E-2,8.214000702E0,1.233000040E0
4.257620986E0,2.895000204E-2,8.337000847E0,8.490000367E-1
4.260127754E0,7.905000448E-2,9.297000885E0,1.539000034E0
4.262635446E0,1.219500080E-1,1.056105042E1,2.740950108E0
4.265142448E0,1.909500062E-1,1.122195053E1,2.911050081E0
4.267648371E0,1.720500141E-1,1.079805088E1,2.202000141E0
4.270155138E0,1.150500029E-1,9.778050423E0,1.752000093E0
4.272662831E0,1.200000010E-2,8.740950584E0,1.672950029E0
4.275169833E0,-5.205000192E-2,8.125950813E0,1.105949998E0
4.277675751E0,-7.304999977E-2,8.281949997E0,7.270500064E-1
4.280182749E0,-1.090500057E-1,9.418950081E0,1.644000053E0
4.282690441E0,-1.189500093E-1,1.083105087E1,2.848950148E0
4.285197179E0,-9.000000544E-3,1.139595032E1,2.773950100E0
4.287703102E0,6.000000238E-2,1.078800011E1,1.897950053E0
4.290210100E0,1.120500043E-1,9.583950043E0,1.453050017E0
4.292717562E0,1.360500008E-1,8.521050453E0,1.285050035E0
4.295224564E0,1.510500014E-1,8.097000122E0,7.990500331E-1
4.297730487E0,1.290000081E-1,8.619000435E0,7.870500088E-1
4.300237254E0,5.505000427E-2,9.880950928E0,1.945950150E0
4.302744947E0,2.595000155E-2,1.092000008E1,2.989950180E0
4.305251949E0,7.050000131E-3,1.099905014E1,2.763000250E0
4.307757872E0,-1.800000109E-2,1.016805077E1,2.047049999E0
4.310264870E0,-7.800000161E-2,9.133950233E0,1.824000120E0
4.312772331E0,-7.605000585E-2,8.455950737E0,1.695000052E0
4.315279337E0,-1.605000161E-2,8.266950607E0,1.134000063E0
4.317785260E0,6.705000252E-2,8.884950638E0,1.009950042E0
4.320292254E0,1.000500023E-1,1.012305069E1,1.968000054E0
4.322799716E0,1.480500102E-1,1.107300091E1,2.584950209E0
4.325306713E0,2.200500071E-1,1.113600063E1,2.071050167E0
4.327812636E0,1.309500039E-1,1.036200047E1,1.486050129E0
4.330319634E0,3.299999982E-2,9.253950119E0,1.399950027E0
4.332827080E0,-3.495000303E-2,8.337000847E0,1.210950017E0
4.335334082E0,-9.000000358E-2,8.037000656E0,8.110500574E-1
4.337840006E0,-1.399500072E-1,8.764950752E0,1.297050118E0
4.340346773E0,-1.639500111E-1,1.015095043E1,2.707050085E0
4.342854465E0,-1.170000061E-1,1.119300079E1,3.337050200E0
4.345361467E0,-2.595000155E-2,1.102305031E1,2.664000034E0
4.347867390E0,7.605000585E-2,9.936000824E0,1.855050087E0
4.350374157E0,1.150500029E-1,8.836950302E0,1.596000075E0
4.352881850E0,1.720500141E-1,8.173950195E0,1.197000027E0
4.355388839E0,2.179500163E-1,8.395950317E0,6.199500561E-1
4.357894762E0,1.750500053E-1,9.522000313E0,1.222950101E0
4.360401519E0,1.270500124E-1,1.083105087E1,2.446050167E0
4.362909211E0,1.000500023E-1,1.129395008E1,2.655000210E0
4.365416213E0,4.995000362E-2,1.067805004E1,1.917000055E0
4.367922136E0,-4.905000329E-2,9.562050819E0,1.465050101E0
4.370428904E0,-1.330500096E-1,8.644950867E0,1.563000083E0
4.372936596E0,-1.639500111E-1,8.203050613E0,1.303950071E0
4.375443598E0,-1.000500023E-1,8.485050201E0,1.033950090E0
4.377949521E0,-5.205000192E-2,9.529050827E0,1.812000036E0
4.380456288E0,1.905000024E-2,1.066605091E1,2.806050062E0
4.382963981E0,1.240500063E-1,1.110900021E1,2.752950191E0
4.385471016E0,1.819500029E-1,1.056300068E1,2.056050062E0
4.387976939E0,1.549500078E-1,9.538950920E0,1.627950072E0
4.390483706E0,1.549500078E-1,8.605050087E0,1.477050066E0
4.392991398E0,1.390500069E-1,8.158950806E0,1.048050046E0
4.395498400E0,1.120500043E-1,8.569050789E0,9.240000248E-1
4.398004329E0,1.200000010E-2,9.840000153E0,1.953000069E0
4.400511097E0,-5.895000324E-2,1.106595039E1,2.940000057E0
4.403018789E0,-7.095000148E-2,1.128600025E1,2.593050241E0
4.405525800E0,-1.210500076E-1,1.043895054E1,1.732950091E0
4.408031723E0,-1.570500135E-1,9.222000122E0,1.390950084E0
4.410538490E0,-1.330500096E-1,8.313000679E0,1.162950039E0
4.413046183E0,-4.905000329E-2,8.100000381E0,7.129500508E-1
4.415553180E0,3.600000218E-2,8.875050545E0,1.003050089E0
4.418059103E0,8.595000207E-2,1.024695015E1,2.290950060E0
4.420565701E0,1.429500133E-1,1.117095089E1,3.102000237E0
4.423072246E0,2.179500163E-1,1.093005085E1,2.595000029E0
4.425580331E0,1.789500117E-1,9.867000580E0,1.881000042E0
4.428086487E0,7.395000011E-2,8.908950806E0,1.824000120E0
4.430593255E0,9.000000544E-3,8.317049980E0,1.606050134E0
4.433100947E0,-1.800000109E-2,8.334000587E0,1.003050089E0
4.435607718E0,-4.500000179E-2,9.211050034E0,1.249050021E0
4.438113872E0,-7.304999977E-2,1.047705078E1,2.355000019E0
4.440620639E0,-1.605000161E-2,1.119300079E1,2.596950054E0
4.443128318E0,-1.395000052E-2,1.097700024E1,1.915050149E0
4.445635089E0,1.905000024E-2,9.973950386E0,1.327950120E0
4.448141243E0,1.395000052E-2,8.893950462E0,1.294950008E0
4.450648250E0,1.905000024E-2,8.158950806E0,1.077000022E0
4.453155711E0,7.905000448E-2,8.167050362E0,7.849500179E-1
4.455662713E0,4.995000362E-2,9.213000298E0,1.611000061E0
4.458168651E0,3.600000218E-2,1.063995075E1,3.012000084E0
4.460675649E0,4.995000362E-2,1.127700043E1,3.253050089E0
4.463183130E0,3.105000220E-2,1.075200081E1,2.427000046E0
4.465690132E0,0.000000000E0,9.517050743E0,1.771050096E0
4.468195978E0,-1.950000064E-3,8.473050117E0,1.522050023E0
4.470702822E0,-1.800000109E-2,8.068050385E0,1.039050102E0
4.473210514E0,2.100000158E-2,8.583000183E0,7.489500642E-1
4.475717516E0,3.105000220E-2,9.912000656E0,1.615950108E0
4.478223363E0,5.205000192E-2,1.109205055E1,2.619000196E0
4.480730207E0,1.080000028E-1,1.125000095E1,2.458050013E0
4.483237899E0,1.000500023E-1,1.042200089E1,1.668000102E0
4.485744901E0,1.695000008E-2,9.289950371E0,1.414950013E0
4.488250805E0,-3.000000119E-2,8.467950821E0,1.411950111E0
4.490757572E0,-3.299999982E-2,8.169000626E0,1.027050018E0
4.493265265E0,-4.905000329E-2,8.695950508E0,1.129950047E0
4.495772267E0,-5.700000376E-2,9.900000572E0,2.238000154E0
4.498278190E0,-1.605000161E-2,1.094895077E1,3.076050043E0
4.500784962E0,1.695000008E-2,1.102800083E1,2.662050009E0
4.503292654E0,6.000000238E-2,1.024200058E1,1.912950039E0
4.505799426E0,2.595000155E-2,9.178950310E0,1.660950065E0
4.508305588E0,1.905000024E-2,8.410950661E0,1.435950041E0
4.510812356E0,6.900000572E-2,8.149950027E0,8.020500541E-1
4.513320048E0,9.300000221E-2,8.855999947E0,1.017000079E0
4.515827050E0,6.705000252E-2,1.028100014E1,2.290950060E0
4.518332973E0,6.195000187E-2,1.132005024E1,2.881950140E0
4.520839740E0,5.700000376E-2,1.116900063E1,2.278950214E0
4.523347433E0,2.595000155E-2,1.009395027E1,1.567950130E0
4.525854435E0,-1.605000161E-2,8.887050629E0,1.402950048E0
4.528360358E0,-5.400000140E-2,8.149950027E0,1.141950011E0
4.530867125E0,-3.000000119E-2,8.236050606E0,7.819500566E-1
4.533374827E0,-6.900000572E-2,9.265950203E0,1.482000113E0
4.535881598E0,-4.695000127E-2,1.061100006E1,2.731050014E0
4.538387752E0,4.095000029E-2,1.113600063E1,2.995050192E0
4.540894520E0,6.405000389E-2,1.058505058E1,2.260050058E0
4.543402212E0,1.080000028E-1,9.502950668E0,1.744950056E0
4.545909002E0,1.030500084E-1,8.635950089E0,1.728000045E0
4.548415156E0,1.080000028E-1,8.286000252E0,1.350000024E0
4.550921904E0,1.630500108E-1,8.611950874E0,9.499500394E-1
4.553429597E0,1.410000026E-1,9.712950706E0,1.635000110E0
4.555936368E0,8.595000207E-2,1.085505009E1,2.596950054E0
4.558442531E0,1.000500023E-1,1.120695019E1,2.434050083E0
4.560949298E0,-1.800000109E-2,1.063305092E1,1.678050041E0
4.563456990E0,-1.309500039E-1,9.535950661E0,1.369050026E0
4.565963761E0,-1.909500062E-1,8.535000801E0,1.267950058E0
4.568469915E0,-1.500000060E-1,8.053950310E0,8.830500245E-1
4.570976683E0,-1.120500043E-1,8.473050117E0,1.006950021E0
4.573484375E0,-7.095000148E-2,9.790050507E0,2.200050116E0
4.575991146E0,4.305000231E-2,1.103295040E1,3.217050076E0
4.578497300E0,1.360500008E-1,1.117605019E1,2.904000044E0
4.581004086E0,2.010000050E-1,1.024005032E1,2.038950205E0
4.583511778E0,1.630500108E-1,9.103050232E0,1.675950050E0
4.586018550E0,1.579500139E-1,8.325000763E0,1.410000086E0
4.588524714E0,1.429500133E-1,8.236050606E0,8.110500574E-1
4.591031481E0,1.030500084E-1,9.136050224E0,1.033950090E0
4.593539154E0,-1.395000052E-2,1.047000027E1,2.206950188E0
4.596045925E0,-2.100000158E-2,1.123095036E1,2.664000034E0
4.598552084E0,-5.205000192E-2,1.089105034E1,2.073000193E0
4.601058851E0,-1.429500133E-1,9.820950508E0,1.446000099E0
4.603566544E0,-1.480500102E-1,8.827050209E0,1.435950041E0
4.606073315E0,-9.705000371E-2,8.274000168E0,1.324050069E0
4.608579392E0,1.950000064E-3,8.370000839E0,9.760500193E-1
4.611086236E0,8.100000024E-2,9.273000717E0,1.563000083E0
4.613593928E0,1.390500069E-1,1.052295017E1,2.695050240E0
4.616100700E0,2.110500038E-1,1.110705090E1,2.899050236E0
4.618606853E0,1.840500087E-1,1.069695091E1,2.202000141E0
4.621113616E0,1.240500063E-1,9.667950630E0,1.684950113E0
4.623621308E0,3.600000218E-2,8.671950340E0,1.582050085E0
4.626128310E0,7.050000131E-3,8.100000381E0,1.194000006E0
4.628634156E0,-1.395000052E-2,8.395950317E0,8.950500488E-1
4.631141000E0,-7.095000148E-2,9.679950714E0,1.780950069E0
4.633648693E0,-7.304999977E-2,1.101600075E1,2.815050125E0
4.636155685E0,-6.000000052E-3,1.136805058E1,2.620950222E0
4.638661608E0,-1.095000096E-2,1.056105042E1,1.756950140E0
4.641168375E0,-1.605000161E-2,9.321000099E0,1.303950071E0
4.643676067E0,1.950000064E-3,8.358000755E0,1.113000035E0
4.646183064E0,5.505000427E-2,8.100000381E0,7.420500517E-1
4.648688910E0,8.400000632E-2,8.832000732E0,1.012050033E0
4.651195755E0,1.000500023E-1,1.014900017E1,2.253000021E0
4.653703447E0,1.150500029E-1,1.114305019E1,3.114000082E0
4.656210218E0,9.795000404E-2,1.096605015E1,2.724000216E0
4.658716372E0,4.095000029E-2,9.931050301E0,1.968000054E0
4.661223139E0,-3.495000303E-2,8.902050018E0,1.795050144E0
4.663730832E0,-8.295000345E-2,8.257950783E0,1.564950109E0
4.666237603E0,-1.950000064E-3,8.254950523E0,9.520500302E-1
4.668743757E0,2.895000204E-2,9.177000046E0,1.267950058E0
4.671250524E0,4.305000231E-2,1.054200077E1,2.322000027E0
4.673758211E0,1.720500141E-1,1.133700085E1,2.523000002E0
4.676264982E0,1.720500141E-1,1.102305031E1,1.869000077E0
4.678771122E0,1.099500060E-1,9.913950920E0,1.303950071E0
4.681277890E0,5.700000376E-2,8.736000061E0,1.228050113E0
4.683785548E0,-2.100000158E-2,8.080050468E0,1.041000009E0
4.686292319E0,-1.395000052E-2,8.206950188E0,8.520000577E-1
4.688798478E0,-4.500000179E-2,9.342000008E0,1.747050047E0
4.691305245E0,-7.605000585E-2,1.072605038E1,3.085950136E0
4.693812937E0,-3.299999982E-2,1.126995087E1,3.202950239E0
4.696319709E0,1.905000024E-2,1.057800007E1,2.332050085E0
4.698825863E0,1.905000024E-2,9.328050613E0,1.687050104E0
4.701332630E0,4.995000362E-2,8.353050232E0,1.462050080E0
4.703840322E0,1.309500039E-1,8.100000381E0,9.859500527E-1
4.706347093E0,1.870500147E-1,8.803050041E0,8.689500690E-1
4.708853247E0,2.010000050E-1,1.015905094E1,1.774050117E0
4.711360014E0,1.840500087E-1,1.117605019E1,2.614050150E0
4.713867707E0,1.530000120E-1,1.110900021E1,2.320050001E0
4.716374478E0,3.600000218E-2,1.018500042E1,1.630050063E0
4.718880536E0,-1.069500074E-1,9.096000671E0,1.411950111E0
4.721387380E0,-1.879500151E-1,8.381999969E0,1.374000072E0
4.723895057E0,-1.639500111E-1,8.197950363E0,1.015050054E0
4.726401829E0,-1.170000061E-1,8.859000206E0,1.300050020E0
4.728907892E0,-6.105000153E-2,1.012995052E1,2.427000046E0
4.731414736E0,4.800000042E-2,1.108005047E1,3.043050051E0
4.733922428E0,1.549500078E-1,1.096095085E1,2.524950027E0
4.736429199E0,1.819500029E-1,1.000995064E1,1.780950069E0
4.738935257E0,1.549500078E-1,8.956950188E0,1.623000026E0
4.741442101E0,1.530000120E-1,8.236050606E0,1.264050007E0
4.743949794E0,1.870500147E-1,8.233950615E0,7.750500441E-1
4.746456565E0,1.120500043E-1,9.277950287E0,1.431000113E0
4.748962642E0,-6.000000052E-3,1.069305038E1,2.611950159E0
4.751469486E0,-2.805000171E-2,1.138500023E1,2.808000088E0
4.753977178E0,-8.805000782E-2,1.087695026E1,2.049000025E0
4.756483950E0,-1.519500017E-1,9.625050545E0,1.386000037E0
4.758990026E0,-1.639500111E-1,8.550000191E0,1.258950114E0
4.761496861E0,-1.020000055E-1,8.076000214E0,9.360000491E-1
4.764004553E0,1.695000008E-2,8.595000267E0,8.640000224E-1
4.766511358E0,6.195000187E-2,9.835050583E0,1.845000029E0
4.769017512E0,1.600500047E-1,1.096095085E1,2.932950258E0
4.771524279E0,2.200500071E-1,1.107600021E1,2.844000101E0
4.774031952E0,1.939500123E-1,1.020405006E1,2.074949980E0
4.776538723E0,9.795000404E-2,9.124050140E0,1.759050131E0
4.779044877E0,4.095000029E-2,8.467950821E0,1.735050082E0
4.781551644E0,-1.950000064E-3,8.310000420E0,1.279950023E0
4.784059336E0,-1.950000064E-3,8.947050095E0,1.201050043E0
4.786566107E0,-3.795000166E-2,1.014900017E1,2.083050013E0
4.789072261E0,-4.200000316E-2,1.109700012E1,2.602050066E0
4.791579029E0,-4.005000368E-2,1.110900021E1,2.065950155E0
4.794086721E0,-7.800000161E-2,1.024005032E1,1.426050067E0
4.796593723E0,-9.495000541E-2,9.073950768E0,1.210950017E0
4.799099569E0,-5.700000376E-2,8.188050270E0,1.009950042E0
4.801606413E0,4.800000042E-2,8.061000824E0,7.609500289E-1
4.804114106E0,7.605000585E-2,9.093000412E0,1.498050094E0
4.806621108E0,9.105000645E-2,1.057500076E1,2.860950232E0
4.809127027E0,8.805000782E-2,1.135605049E1,3.322950125E0
4.811633794E0,6.705000252E-2,1.079295063E1,2.560950041E0
4.814141486E0,2.895000204E-2,9.538950920E0,1.825950146E0
4.816648488E0,-2.295000106E-2,8.503950119E0,1.620000124E0
4.819154334E0,-2.805000171E-2,8.104050636E0,1.168050051E0
4.821661168E0,1.200000010E-2,8.653050423E0,8.449500203E-1
4.824168832E0,2.400000021E-2,9.919050217E0,1.636950135E0
4.826675834E0,5.505000427E-2,1.105395031E1,2.560950041E0
4.829181757E0,1.429500133E-1,1.119105053E1,2.379000187E0
4.831688524E0,8.805000782E-2,1.034100056E1,1.600950122E0
4.834196216E0,1.395000052E-2,9.234000206E0,1.282950044E0
4.836702988E0,-4.005000368E-2,8.499000549E0,1.426050067E0
4.839209142E0,-4.050000105E-3,8.254950523E0,1.134000063E0
4.841715909E0,1.905000024E-2,8.866050720E0,1.216050029E0
4.844223601E0,0.000000000E0,1.006800079E1,2.287950039E0
4.846730372E0,3.795000166E-2,1.096800041E1,3.007050037E0
4.849236531E0,5.505000427E-2,1.094400024E1,2.575950146E0
4.851743298E0,-6.000000052E-3,1.003695011E1,1.849950075E0
4.854250991E0,-2.100000158E-2,8.971050262E0,1.603950024E0
4.856757762E0,2.400000021E-2,8.266950607E0,1.446000099E0
4.859263916E0,9.300000221E-2,8.206950188E0,9.280500412E-1
4.861770697E0,1.360500008E-1,9.163050652E0,1.300050020E0
4.864278389E0,9.300000221E-2,1.061595058E1,2.478000164E0
4.866785161E0,8.595000207E-2,1.142505074E1,2.869950056E0
4.869291314E0,5.700000376E-2,1.097700024E1,2.077950001E0
4.871798082E0,-4.200000316E-2,9.730050087E0,1.369050026E0
4.874305774E0,-1.069500074E-1,8.546999931E0,1.153950095E0
4.876812545E0,-1.050000042E-1,7.992000580E0,8.659500480E-1
4.879318699E0,-9.000000358E-2,8.440050125E0,8.179500103E-1
4.881825466E0,-7.800000161E-2,9.723000526E0,1.845000029E0
4.884333159E0,-9.000000544E-3,1.091805077E1,2.953950167E0
4.886839930E0,4.500000179E-2,1.111200047E1,2.971050024E0
4.889346084E0,7.605000585E-2,1.026600075E1,2.149950027E0
4.891852851E0,6.705000252E-2,9.157950401E0,1.707000136E0
4.894360557E0,4.800000042E-2,8.394000053E0,1.659000039E0
4.896867329E0,1.120500043E-1,8.191050529E0,1.150950074E0
4.899373410E0,1.429500133E-1,8.806050301E0,1.075049996E0
4.901880255E0,1.080000028E-1,1.013205051E1,2.037000179E0
4.904387957E0,9.600000083E-2,1.120305061E1,2.676000118E0
4.906894728E0,7.905000448E-2,1.123800087E1,2.212050200E0
4.909400805E0,-5.700000376E-2,1.027095032E1,1.458000064E0
4.911907649E0,-1.519500017E-1,9.001950264E0,1.174950004E0
4.914415342E0,-2.029500157E-1,8.109000206E0,1.108050108E0
4.916922344E0,-1.330500096E-1,8.013000488E0,8.230500221E-1
4.919428190E0,-8.295000345E-2,9.024000168E0,1.434000015E0
4.921935034E0,-5.400000140E-2,1.051305008E1,2.746050119E0
4.924442726E0,6.900000572E-2,1.134900093E1,3.258000135E0
4.926949497E0,1.339500099E-1,1.088205051E1,2.623950243E0
4.929455584E0,1.270500124E-1,9.570000648E0,1.762050033E0
4.931962429E0,1.390500069E-1,8.487000465E0,1.549050093E0
4.934470106E0,1.170000061E-1,8.041950226E0,1.216050029E0
4.936976877E0,1.339500099E-1,8.581050873E0,9.210000634E-1
4.939483031E0,8.805000782E-2,9.888000488E0,1.656000137E0
4.941989798E0,4.800000042E-2,1.106805038E1,2.551950216E0
4.944497504E0,-6.000000052E-3,1.126005077E1,2.466000080E0
4.947004276E0,-1.000500023E-1,1.038795090E1,1.678050041E0
4.949510430E0,-1.930500120E-1,9.226950645E0,1.302000046E0
4.952017197E0,-2.310000062E-1,8.401050568E0,1.225050092E0
4.954524889E0,-1.260000020E-1,8.155050278E0,9.379500151E-1
4.957031660E0,-9.000000544E-3,8.782050133E0,1.177050114E0
4.959537814E0,8.400000632E-2,1.008705044E1,2.274000168E0
4.962044581E0,1.840500087E-1,1.109505081E1,3.000000238E0
4.964552274E0,2.460000068E-1,1.106100082E1,2.674050093E0
4.967059045E0,2.220000178E-1,1.007505035E1,1.917000055E0
4.969565199E0,1.120500043E-1,8.956950188E0,1.632000089E0
4.972071966E0,2.100000158E-2,8.146950722E0,1.359000087E0
4.974579658E0,2.400000021E-2,8.140049934E0,8.850000501E-1
4.977086660E0,-6.000000052E-3,9.190950394E0,1.402950048E0
4.979592564E0,-4.500000179E-2,1.066905022E1,2.533050060E0
4.982099332E0,-4.005000368E-2,1.142295074E1,2.763000250E0
4.984607039E0,-5.700000376E-2,1.090995026E1,2.017950058E0
4.987113810E0,-4.200000316E-2,9.634050369E0,1.303950071E0
4.989619906E0,-2.100000158E-2,8.550000191E0,1.141950011E0
4.992126750E0,3.600000218E-2,8.104050636E0,9.120000601E-1
4.994634457E0,1.080000028E-1,8.614050865E0,8.830500245E-1
4.997141228E0,1.459500045E-1,9.879000664E0,1.864950061E0
4.999647382E0,1.480500102E-1,1.095405006E1,2.904000044E0
5.002154149E0,1.750500053E-1,1.106595039E1,2.905950069E0
5.004661841E0,1.030500084E-1,1.018500042E1,2.134950161E0
5.007168613E0,4.950000439E-3,9.079050064E0,1.747050047E0
5.009674766E0,-7.304999977E-2,8.381999969E0,1.719000101E0
5.012181534E0,-3.299999982E-2,8.269950867E0,1.261050105E0
5.014689226E0,5.700000376E-2,8.968950272E0,1.228050113E0
5.017195997E0,6.405000389E-2,1.024005032E1,2.053950071E0
5.019702132E0,1.459500045E-1,1.113300037E1,2.536950111E0
5.022208899E0,1.339500099E-1,1.109700012E1,2.073000193E0
5.024716630E0,6.705000252E-2,1.017105007E1,1.390950084E0
5.027223401E0,7.050000131E-3,8.989950180E0,1.158000112E0
5.029729541E0,-4.695000127E-2,8.101950645E0,9.790500402E-1
5.032236308E0,-6.000000052E-3,8.107049942E0,8.209500313E-1
5.034743995E0,-2.595000155E-2,9.199050903E0,1.642050028E0
5.037250766E0,-4.005000368E-2,1.063995075E1,2.913000107E0
5.039756920E0,-4.500000179E-2,1.131300068E1,3.261000156E0
5.042263688E0,-2.295000106E-2,1.068795013E1,2.527950048E0
5.044771380E0,-1.605000161E-2,9.390000343E0,1.750050068E0
5.047278151E0,-1.950000064E-3,8.338950157E0,1.495950103E0
5.049784305E0,7.905000448E-2,8.053950310E0,1.036050081E0
5.052291072E0,1.840500087E-1,8.739000320E0,9.120000601E-1
5.054798765E0,2.179500163E-1,1.015905094E1,1.795050144E0
5.057305536E0,2.149500102E-1,1.122405052E1,2.595000029E0
5.059811613E0,1.669500023E-1,1.126695061E1,2.374950171E0
5.062318457E0,3.105000220E-2,1.024995041E1,1.606050134E0
5.064826144E0,-8.295000345E-2,9.016950607E0,1.240050077E0
5.067332915E0,-1.810500026E-1,8.242950439E0,1.282950044E0
5.069838987E0,-1.759500057E-1,8.157000542E0,1.069950104E0
5.072345831E0,-1.069500074E-1,9.009000778E0,1.419000030E0
5.074853529E0,-6.405000389E-2,1.034805012E1,2.487000227E0
5.077360300E0,5.205000192E-2,1.119795036E1,3.025950193E0
5.079866377E0,1.270500124E-1,1.091295052E1,2.523000002E0
5.082373221E0,1.720500141E-1,9.807000160E0,1.732950091E0
5.084880913E0,1.699500084E-1,8.690999985E0,1.471950054E0
5.087387915E0,1.699500084E-1,8.072999954E0,1.261050105E0
5.089893762E0,2.250000089E-1,8.374950409E0,1.029000044E0
5.092400606E0,1.770000011E-1,9.610050201E0,1.687050104E0
5.094908298E0,6.705000252E-2,1.100595093E1,2.683050156E0
5.097415069E0,1.200000010E-2,1.143495083E1,2.734050035E0
5.099921146E0,-1.429500133E-1,1.069305038E1,1.936050057E0
5.102427990E0,-2.220000178E-1,9.294000626E0,1.237050056E0
5.104935683E0,-2.670000196E-1,8.242950439E0,1.004999995E0
5.107442473E0,-1.600500047E-1,7.956000328E0,7.390500307E-1
5.109948627E0,-4.200000316E-2,8.748000145E0,1.039050102E0
5.112455418E0,9.795000404E-2,1.019205093E1,2.178000212E0
5.114963110E0,2.110500038E-1,1.119300079E1,3.000000238E0
5.117469886E0,2.580000162E-1,1.101300049E1,2.773950100E0
5.119976054E0,2.440500110E-1,9.928950310E0,2.061000109E0
5.122482822E0,1.290000081E-1,8.859000206E0,1.747050047E0
5.124990514E0,2.100000158E-2,8.253000259E0,1.561050057E0
5.127497285E0,6.405000389E-2,8.298000336E0,1.057950020E0
5.130003439E0,1.905000024E-2,9.261000633E0,1.419000030E0
5.132510206E0,-3.299999982E-2,1.057005024E1,2.329050064E0
5.135017899E0,-2.100000158E-2,1.130595016E1,2.523000002E0
5.137524670E0,-1.605000161E-2,1.097295094E1,1.872000098E0
5.140030824E0,-6.405000389E-2,9.814050674E0,1.225050092E0
5.142537591E0,-5.895000324E-2,8.626049995E0,1.089000106E0
5.145045283E0,-1.395000052E-2,7.989000320E0,9.139500260E-1
5.147552256E0,9.600000083E-2,8.374950409E0,9.840000272E-1
5.150058179E0,9.795000404E-2,9.709050179E0,2.014950037E0
5.152564947E0,1.120500043E-1,1.101105022E1,3.121950150E0
5.155072634E0,1.270500124E-1,1.126995087E1,3.145950079E0
5.157579636E0,5.700000376E-2,1.037400055E1,2.299950123E0
5.160085573E0,1.395000052E-2,9.073950768E0,1.696950078E0
5.162592340E0,-3.000000119E-2,8.185950279E0,1.453050017E0
5.165100033E0,2.400000021E-2,8.149950027E0,1.041000009E0
5.167607079E0,9.105000645E-2,9.112050056E0,1.168050051E0
5.170113002E0,8.595000207E-2,1.049100018E1,2.056050062E0
5.172619769E0,1.080000028E-1,1.126695061E1,2.509050131E0
5.175127461E0,7.200000435E-2,1.096305084E1,2.097000122E0
5.177634232E0,1.950000064E-3,9.888000488E0,1.422000051E0
5.180140386E0,-9.705000371E-2,8.772000313E0,1.234950066E0
5.182647154E0,-1.050000042E-1,8.146950722E0,1.105949998E0
5.185154846E0,-4.500000179E-2,8.329050064E0,1.057950020E0
5.187661848E0,4.950000439E-3,9.369000435E0,1.810050130E0
5.190167771E0,5.505000427E-2,1.063995075E1,2.815050125E0
5.192674538E0,8.595000207E-2,1.120695019E1,2.988000154E0
5.195182230E0,7.605000585E-2,1.066905022E1,2.347950220E0
5.197688987E0,5.205000192E-2,9.478950500E0,1.707000136E0
5.200195141E0,-2.100000158E-2,8.389050484E0,1.419000030E0
5.202701932E0,2.400000021E-2,7.908000469E0,9.210000634E-1
5.205209624E0,1.099500060E-1,8.629050255E0,1.012050033E0
5.207716395E0,9.300000221E-2,1.012500095E1,2.061000109E0
5.210222549E0,9.795000404E-2,1.133895016E1,2.715000153E0
5.212729316E0,4.500000179E-2,1.135095024E1,2.410950184E0
5.215237009E0,-3.495000303E-2,1.020705032E1,1.627950072E0
5.217743780E0,-7.304999977E-2,8.811000824E0,1.174950004E0
