"Time (s)","Gyroscope x (rad/s)","Gyroscope y (rad/s)","Gyroscope z (rad/s)"
1.604213800E-2,-8.648750186E-2,2.969999984E-2,1.264999993E-2
1.854892000E-2,-9.996250272E-2,1.512499992E-3,2.488750033E-2
2.105662200E-2,-6.324999779E-2,-4.001250118E-2,1.636249945E-2
2.356362200E-2,-2.653750032E-2,-6.682500243E-2,-6.874999963E-3
2.606954500E-2,-3.024999984E-2,-5.706249923E-2,-2.144999988E-2
2.857632400E-2,-5.829999968E-2,-2.158750035E-2,-2.021249942E-2
3.108401600E-2,-7.301250100E-2,3.987499978E-3,-6.874999963E-3
3.359102500E-2,-5.953750014E-2,1.498750038E-2,1.264999993E-2
3.609695000E-2,-2.901249938E-2,1.869999990E-2,2.364999987E-2
3.860371800E-2,2.832499892E-2,7.699999958E-3,2.488750033E-2
4.111141000E-2,1.053249985E-1,-4.537499975E-3,1.636249945E-2
4.361818100E-2,1.615625024E-1,-2.062499989E-3,-4.399999976E-3
4.612433500E-2,1.518000066E-1,2.598750032E-2,-2.021249942E-2
4.863110200E-2,8.208750188E-2,5.775000155E-2,-2.887500077E-2
5.113879500E-2,7.562499959E-3,5.527500063E-2,-2.392499894E-2
5.364556600E-2,-5.348749831E-2,1.746249944E-2,-1.292499993E-2
5.615164300E-2,-1.010624990E-1,-3.135000169E-2,6.599999964E-3
5.865852100E-2,-1.230624989E-1,-5.582499877E-2,2.364999987E-2
6.116621300E-2,-1.010624990E-1,-6.324999779E-2,3.107500076E-2
6.367298400E-2,-4.001250118E-2,-4.977500066E-2,2.612499893E-2
6.617906100E-2,1.374999993E-2,-1.801249944E-2,6.599999964E-3
6.868593900E-2,3.079999983E-2,1.993750036E-2,-1.292499993E-2
7.119363100E-2,2.474999987E-2,4.069999978E-2,-2.763750032E-2
7.370040200E-2,2.351249941E-2,2.722499892E-2,-2.887500077E-2
7.620647900E-2,2.103750035E-2,7.699999958E-3,-1.416249946E-2
7.871332300E-2,1.003750041E-2,3.987499978E-3,6.599999964E-3
8.122091900E-2,1.856249943E-2,1.127499994E-2,2.241249941E-2
8.372776700E-2,5.403750017E-2,8.937500417E-3,2.364999987E-2
8.623385400E-2,8.456250280E-2,5.224999972E-3,1.264999993E-2
8.874062100E-2,6.984999776E-2,3.987499978E-3,-8.112499490E-3
9.124831300E-2,8.799999952E-3,3.987499978E-3,-2.144999988E-2
9.375516100E-2,-5.348749831E-2,-8.249999955E-3,-2.144999988E-2
9.626123800E-2,-9.624999762E-2,-2.158750035E-2,-9.349999949E-3
9.876800600E-2,-1.145374998E-1,-2.529999986E-2,1.512499992E-2
1.012756980E-1,-1.035374999E-1,-2.158750035E-2,2.859999985E-2
1.037825460E-1,-4.372499883E-2,-1.924999990E-2,2.983750030E-2
1.062886230E-1,3.808749840E-2,-2.048750035E-2,1.154999994E-2
1.087953940E-1,8.827500045E-2,-3.299999982E-3,-1.292499993E-2
1.113031630E-1,8.951249719E-2,2.351249941E-2,-3.011249937E-2
1.138099350E-1,6.008749828E-2,4.551250115E-2,-3.616249934E-2
1.163160410E-1,2.956249937E-2,4.551250115E-2,-2.268750034E-2
1.188228080E-1,2.749999985E-4,2.227500081E-2,-1.924999990E-3
1.213305000E-1,-2.777500078E-2,-8.249999955E-4,1.883750036E-2
1.238372710E-1,-3.148749843E-2,-2.529999986E-2,3.107500076E-2
1.263434630E-1,-7.012499962E-3,-4.235000163E-2,2.488750033E-2
1.288502300E-1,2.103750035E-2,-3.753750026E-2,1.388750039E-2
1.313579230E-1,1.732499897E-2,-7.012499962E-3,-3.162499983E-3
1.338646940E-1,-1.072499994E-2,1.746249944E-2,-1.539999992E-2
1.363708480E-1,-3.396249935E-2,2.227500081E-2,-2.144999988E-2
1.388776150E-1,-4.372499883E-2,4.124999978E-4,-1.539999992E-2
1.413852880E-1,-4.977500066E-2,-1.306249946E-2,1.649999991E-3
1.438921370E-1,-4.372499883E-2,-1.677500084E-2,1.388750039E-2
1.463982130E-1,1.512499992E-3,-8.249999955E-3,2.241249941E-2
1.489049810E-1,6.627500057E-2,3.987499978E-3,1.154999994E-2
1.514126730E-1,1.005124971E-1,1.622499898E-2,-6.874999963E-3
1.539195210E-1,8.084999770E-2,3.217500076E-2,-2.392499894E-2
1.564255980E-1,3.327500075E-2,3.217500076E-2,-3.011249937E-2
1.589323650E-1,-1.319999993E-2,6.462499965E-3,-1.911249943E-2
1.614398270E-1,-5.472499877E-2,-1.553750038E-2,2.887499984E-3
1.639468290E-1,-7.796250284E-2,-2.048750035E-2,2.736249939E-2
1.664527760E-1,-6.696250290E-2,-3.024999984E-2,4.207500070E-2
1.689597740E-1,-1.924999990E-2,-3.382499889E-2,3.341250122E-2
1.714674660E-1,3.203750029E-2,-2.777500078E-2,1.031249948E-2
1.739742570E-1,4.675000161E-2,-5.774999969E-3,-1.539999992E-2
1.764801800E-1,2.832499892E-2,2.351249941E-2,-3.121249937E-2
1.789871780E-1,6.324999966E-3,4.193750024E-2,-3.368749842E-2
1.814948850E-1,-5.774999969E-3,3.451250121E-2,-2.268750034E-2
1.840016560E-1,-1.924999990E-2,1.374999993E-2,-1.924999990E-3
1.865075790E-1,-2.543750033E-2,-5.774999969E-3,1.388750039E-2
1.890145610E-1,-5.774999969E-3,-2.653750032E-2,2.241249941E-2
1.915220230E-1,3.079999983E-2,-2.901249938E-2,1.512499992E-2
1.940290250E-1,5.279999971E-2,-1.429999992E-2,2.887499984E-3
1.965349480E-1,3.698749840E-2,1.251249947E-2,-1.044999994E-2
1.990419460E-1,2.749999985E-3,2.598750032E-2,-1.416249946E-2
2.015494070E-1,-2.653750032E-2,1.017499994E-2,-1.044999994E-2
2.040564090E-1,-4.853750020E-2,-1.553750038E-2,5.499999970E-4
2.065623330E-1,-6.324999779E-2,-2.653750032E-2,1.636249945E-2
2.090693310E-1,-4.977500066E-2,-2.406249940E-2,2.241249941E-2
2.115767920E-1,2.749999985E-4,-1.553750038E-2,1.883750036E-2
2.140837800E-1,5.527500063E-2,2.749999985E-3,-6.874999963E-4
2.165897030E-1,7.356250286E-2,2.227500081E-2,-2.392499894E-2
2.190964460E-1,5.403750017E-2,3.575000167E-2,-3.739999980E-2
2.216041390E-1,1.856249943E-2,3.093750030E-2,-3.739999980E-2
2.241111310E-1,-1.443750039E-2,8.937500417E-3,-1.663750038E-2
2.266170540E-1,-4.372499883E-2,-7.012499962E-3,1.031249948E-2
2.291238210E-1,-5.596249923E-2,-1.306249946E-2,3.231250122E-2
2.316315180E-1,-3.272499889E-2,-3.024999984E-2,3.959999979E-2
2.341382900E-1,1.374999993E-2,-3.877500072E-2,2.612499893E-2
2.366444430E-1,4.427500069E-2,-2.653750032E-2,4.124999978E-3
2.391512110E-1,3.451250121E-2,2.749999985E-3,-1.911249943E-2
2.416589030E-1,1.127499994E-2,3.698749840E-2,-3.121249937E-2
2.441656740E-1,-1.196249947E-2,4.069999978E-2,-2.763750032E-2
2.466718280E-1,-2.543750033E-2,2.117500082E-2,-1.416249946E-2
2.491785950E-1,-3.753750026E-2,-3.299999982E-3,5.362499971E-3
2.516862880E-1,-3.643750027E-2,-2.653750032E-2,1.759999990E-2
2.541932900E-1,-5.774999969E-3,-3.629999980E-2,2.007500082E-2
2.566991360E-1,3.932499886E-2,-2.158750035E-2,9.074999951E-3
2.592059940E-1,6.008749828E-2,7.699999958E-3,-3.162499983E-3
2.617136860E-1,4.798749834E-2,3.327500075E-2,-1.539999992E-2
2.642204440E-1,2.103750035E-2,3.575000167E-2,-2.021249942E-2
2.667265200E-1,-2.199999988E-3,6.462499965E-3,-1.416249946E-2
2.692333650E-1,-3.272499889E-2,-2.048750035E-2,1.649999991E-3
2.717410610E-1,-5.596249923E-2,-2.777500078E-2,1.883750036E-2
2.742478320E-1,-5.101250112E-2,-2.048750035E-2,2.859999985E-2
2.767539090E-1,-1.072499994E-2,-9.487500414E-3,2.131249942E-2
2.792607530E-1,3.203750029E-2,-3.299999982E-3,-6.874999963E-4
2.817684460E-1,3.932499886E-2,6.462499965E-3,-2.268750034E-2
2.842752170E-1,1.979999989E-2,1.622499898E-2,-3.368749842E-2
2.867813710E-1,2.749999985E-4,1.869999990E-2,-3.011249937E-2
2.892880610E-1,-1.567500085E-2,1.127499994E-2,-9.349999949E-3
2.917958300E-1,-2.653750032E-2,5.224999972E-3,1.636249945E-2
2.943026010E-1,-2.048750035E-2,-5.774999969E-3,3.341250122E-2
2.968086780E-1,1.251249947E-2,-2.158750035E-2,2.983750030E-2
2.993154460E-1,4.798749834E-2,-3.258749843E-2,1.388750039E-2
3.018231910E-1,6.256250292E-2,-1.429999992E-2,-9.349999949E-3
3.043299620E-1,3.698749840E-2,1.869999990E-2,-2.392499894E-2
3.068360540E-1,-9.624999948E-4,4.303750023E-2,-2.392499894E-2
3.093428210E-1,-3.024999984E-2,3.698749840E-2,-1.416249946E-2
3.118505710E-1,-4.977500066E-2,6.462499965E-3,-1.924999990E-3
3.143573420E-1,-6.201250106E-2,-3.258749843E-2,1.388750039E-2
3.168634190E-1,-5.472499877E-2,-5.335000157E-2,2.007500082E-2
3.193702640E-1,-1.801249944E-2,-4.358749837E-2,1.759999990E-2
3.218778790E-1,2.832499892E-2,-1.182499994E-2,5.362499971E-3
3.243847270E-1,5.527500063E-2,3.217500076E-2,-1.044999994E-2
3.268908040E-1,5.651250109E-2,5.775000155E-2,-2.392499894E-2
3.293976480E-1,4.056249931E-2,4.303750023E-2,-2.887500077E-2
3.319052640E-1,1.856249943E-2,2.749999985E-3,-1.787500083E-2
3.344121120E-1,-1.677500084E-2,-2.653750032E-2,2.887499984E-3
3.369181890E-1,-4.372499883E-2,-3.258749843E-2,2.612499893E-2
3.394249560E-1,-3.753750026E-2,-1.801249944E-2,3.588749841E-2
3.419326490E-1,-3.437499981E-3,-3.299999982E-3,2.612499893E-2
3.444394820E-1,2.956249937E-2,3.987499978E-3,4.124999978E-3
3.469455590E-1,2.832499892E-2,3.987499978E-3,-2.268750034E-2
3.494523310E-1,3.987499978E-3,2.749999985E-3,-3.616249934E-2
3.519600230E-1,-1.801249944E-2,5.224999972E-3,-3.011249937E-2
3.544668710E-1,-3.396249935E-2,5.224999972E-3,-6.874999963E-3
3.569729290E-1,-3.877500072E-2,1.127499994E-2,1.759999990E-2
3.594796960E-1,-2.543750033E-2,3.987499978E-3,2.983750030E-2
3.619873890E-1,8.799999952E-3,-1.677500084E-2,2.612499893E-2
3.644941750E-1,4.908749834E-2,-3.024999984E-2,5.362499971E-3
3.670000980E-1,6.132499874E-2,-1.924999990E-2,-1.416249946E-2
3.695070960E-1,3.932499886E-2,1.622499898E-2,-2.639999986E-2
3.720147880E-1,8.799999952E-3,4.675000161E-2,-2.392499894E-2
3.745215600E-1,-1.319999993E-2,4.193750024E-2,-1.044999994E-2
3.770274830E-1,-3.519999981E-2,7.699999958E-3,6.599999964E-3
3.795344810E-1,-5.101250112E-2,-3.024999984E-2,2.131249942E-2
3.820421730E-1,-4.743750021E-2,-5.582499877E-2,2.241249941E-2
3.845489340E-1,-1.567500085E-2,-5.224999785E-2,1.759999990E-2
3.870548570E-1,2.103750035E-2,-1.429999992E-2,4.124999978E-3
3.895618550E-1,3.932499886E-2,3.451250121E-2,-1.168750040E-2
3.920693170E-1,3.808749840E-2,5.775000155E-2,-2.392499894E-2
3.945763390E-1,3.079999983E-2,4.069999978E-2,-2.763750032E-2
3.970822620E-1,1.251249947E-2,-8.249999955E-4,-1.787500083E-2
3.995892600E-1,-1.801249944E-2,-2.653750032E-2,1.649999991E-3
4.020967410E-1,-4.124999791E-2,-2.777500078E-2,2.364999987E-2
4.046037430E-1,-3.024999984E-2,-1.553750038E-2,3.231250122E-2
4.071096660E-1,3.987499978E-3,-2.062499989E-3,2.007500082E-2
4.096164330E-1,3.079999983E-2,6.462499965E-3,-6.874999963E-4
4.121241390E-1,2.956249937E-2,8.937500417E-3,-2.268750034E-2
4.146311410E-1,1.127499994E-2,8.937500417E-3,-3.121249937E-2
4.171370640E-1,-9.487500414E-3,3.987499978E-3,-2.392499894E-2
4.196437930E-1,-2.543750033E-2,4.124999978E-4,-1.924999990E-3
4.221504380E-1,-4.124999791E-2,1.512499992E-3,2.241249941E-2
4.246585240E-1,-3.643750027E-2,-1.058750041E-2,3.341250122E-2
4.271644490E-1,-4.674999975E-3,-2.653750032E-2,2.859999985E-2
4.296714470E-1,3.808749840E-2,-2.777500078E-2,5.362499971E-3
4.321788940E-1,5.403750017E-2,-1.182499994E-2,-1.539999992E-2
4.346856660E-1,4.551250115E-2,2.474999987E-2,-2.639999986E-2
4.371918200E-1,2.708750032E-2,4.922499880E-2,-2.639999986E-2
4.396988180E-1,7.562499959E-3,4.193750024E-2,-1.663750038E-2
4.422062790E-1,-2.172499895E-2,6.462499965E-3,-1.924999990E-3
4.447132810E-1,-4.977500066E-2,-2.777500078E-2,1.512499992E-2
4.472191270E-1,-5.472499877E-2,-4.729999974E-2,2.364999987E-2
4.497259710E-1,-2.777500078E-2,-4.606249928E-2,2.241249941E-2
4.522336780E-1,8.799999952E-3,-1.429999992E-2,9.074999951E-3
4.547404490E-1,3.327500075E-2,1.993750036E-2,-8.112499490E-3
4.572466030E-1,3.327500075E-2,3.946249932E-2,-2.021249942E-2
4.597533750E-1,2.708750032E-2,2.846249938E-2,-2.268750034E-2
4.622610670E-1,8.799999952E-3,-8.249999955E-4,-1.044999994E-2
4.647680690E-1,-1.677500084E-2,-1.924999990E-2,7.837500423E-3
4.672739920E-1,-3.396249935E-2,-1.924999990E-2,2.488750033E-2
4.697807600E-1,-1.801249944E-2,-1.058750041E-2,2.859999985E-2
4.722884710E-1,1.498750038E-2,-3.299999982E-3,1.388750039E-2
4.747952420E-1,4.056249931E-2,2.749999985E-3,-8.112499490E-3
4.773013960E-1,4.056249931E-2,1.017499994E-2,-2.763750032E-2
4.798081680E-1,1.856249943E-2,1.869999990E-2,-3.121249937E-2
4.823158610E-1,-4.674999975E-3,1.498750038E-2,-2.268750034E-2
4.848226320E-1,-2.777500078E-2,5.224999972E-3,-1.924999990E-3
4.873287090E-1,-4.853750020E-2,-4.537499975E-3,2.131249942E-2
4.898355910E-1,-4.853750020E-2,-2.048750035E-2,3.231250122E-2
4.923432830E-1,-2.296249941E-2,-3.629999980E-2,2.859999985E-2
4.948500550E-1,1.856249943E-2,-3.506249934E-2,7.837500423E-3
4.973561410E-1,4.179999977E-2,-1.058750041E-2,-1.044999994E-2
4.998629860E-1,4.303750023E-2,2.969999984E-2,-2.516249940E-2
5.023706780E-1,3.079999983E-2,5.527500063E-2,-2.887500077E-2
5.048774540E-1,1.732499897E-2,4.303750023E-2,-2.021249942E-2
5.073835310E-1,-5.774999969E-3,8.937500417E-3,-8.112499490E-3
5.098903750E-1,-3.519999981E-2,-2.282499894E-2,1.388750039E-2
5.123979910E-1,-4.743750021E-2,-4.853750020E-2,2.488750033E-2
5.149048390E-1,-2.901249938E-2,-4.358749837E-2,2.736249939E-2
5.174109160E-1,6.324999966E-3,-1.429999992E-2,1.636249945E-2
5.199177600E-1,3.203750029E-2,1.622499898E-2,-3.162499983E-3
5.224253750E-1,3.808749840E-2,3.698749840E-2,-1.911249943E-2
5.249322230E-1,2.832499892E-2,2.722499892E-2,-2.763750032E-2
5.274383140E-1,1.003750041E-2,1.512499992E-3,-1.787500083E-2
5.299450820E-1,-1.924999990E-2,-1.429999992E-2,5.499999970E-4
5.324527740E-1,-4.372499883E-2,-1.677500084E-2,2.007500082E-2
5.349596220E-1,-4.001250118E-2,-1.182499994E-2,2.736249939E-2
5.374656990E-1,-5.774999969E-3,-5.774999969E-3,1.759999990E-2
5.399724660E-1,3.079999983E-2,-8.249999955E-4,-3.162499983E-3
5.424801590E-1,4.056249931E-2,3.987499978E-3,-2.392499894E-2
5.449870070E-1,2.708750032E-2,1.498750038E-2,-3.011249937E-2
5.474930840E-1,7.562499959E-3,1.498750038E-2,-2.021249942E-2
5.499998510E-1,-1.196249947E-2,1.017499994E-2,-1.924999990E-3
5.525075530E-1,-3.024999984E-2,1.512499992E-3,2.007500082E-2
5.550143240E-1,-3.753750026E-2,-1.306249946E-2,2.983750030E-2
5.575204780E-1,-1.924999990E-2,-3.506249934E-2,2.612499893E-2
5.600272360E-1,1.003750041E-2,-3.877500072E-2,9.074999951E-3
5.625349280E-1,3.327500075E-2,-1.429999992E-2,-1.044999994E-2
5.650416990E-1,3.808749840E-2,2.351249941E-2,-2.392499894E-2
5.675476220E-1,2.832499892E-2,5.527500063E-2,-3.121249937E-2
5.700546200E-1,1.732499897E-2,4.551250115E-2,-2.516249940E-2
5.725623130E-1,-4.674999975E-3,1.017499994E-2,-1.292499993E-2
5.750690840E-1,-3.396249935E-2,-2.653750032E-2,9.074999951E-3
5.775750070E-1,-5.348749831E-2,-4.482499883E-2,2.364999987E-2
5.800820050E-1,-3.877500072E-2,-4.235000163E-2,2.983750030E-2
5.825896630E-1,-9.624999948E-4,-1.553750038E-2,1.883750036E-2
5.850964340E-1,3.451250121E-2,1.251249947E-2,-6.874999963E-4
5.876023570E-1,4.798749834E-2,3.451250121E-2,-1.663750038E-2
5.901093550E-1,4.179999977E-2,3.217500076E-2,-2.639999986E-2
5.926168170E-1,2.227500081E-2,6.462499965E-3,-2.268750034E-2
5.951238190E-1,-1.319999993E-2,-1.182499994E-2,-3.162499983E-3
5.976297420E-1,-4.496249929E-2,-1.677500084E-2,1.759999990E-2
6.001367400E-1,-5.224999785E-2,-1.429999992E-2,2.983750030E-2
6.026442210E-1,-2.543750033E-2,-1.058750041E-2,2.241249941E-2
6.051512230E-1,1.732499897E-2,-7.012499962E-3,1.649999991E-3
6.076571460E-1,4.179999977E-2,-3.299999982E-3,-1.911249943E-2
6.101641440E-1,4.056249931E-2,1.374999993E-2,-3.011249937E-2
6.126716010E-1,2.832499892E-2,2.474999987E-2,-2.763750032E-2
6.151786030E-1,5.224999972E-3,2.227500081E-2,-1.292499993E-2
6.176845260E-1,-1.677500084E-2,1.017499994E-2,1.031249948E-2
6.201912940E-1,-3.877500072E-2,-1.182499994E-2,2.364999987E-2
6.226989860E-1,-3.519999981E-2,-3.382499889E-2,2.983750030E-2
6.252059880E-1,-8.249999955E-3,-4.001250118E-2,1.759999990E-2
6.277119110E-1,1.979999989E-2,-2.282499894E-2,1.649999991E-3
6.302189090E-1,3.327500075E-2,7.699999958E-3,-1.416249946E-2
6.327263710E-1,2.708750032E-2,3.946249932E-2,-2.516249940E-2
6.352333730E-1,1.622499898E-2,4.427500069E-2,-2.516249940E-2
6.377392960E-1,2.749999985E-3,2.227500081E-2,-1.663750038E-2
6.402462940E-1,-2.296249941E-2,-1.306249946E-2,4.124999978E-3
6.427537020E-1,-4.124999791E-2,-3.629999980E-2,2.131249942E-2
6.452604730E-1,-3.753750026E-2,-4.001250118E-2,2.736249939E-2
6.477666030E-1,-7.012499962E-3,-2.653750032E-2,2.131249942E-2
6.502733710E-1,2.832499892E-2,3.987499978E-3,2.887499984E-3
6.527810580E-1,5.279999971E-2,3.093750030E-2,-1.416249946E-2
6.552880600E-1,5.527500063E-2,4.193750024E-2,-2.763750032E-2
6.577939830E-1,3.451250121E-2,2.351249941E-2,-2.763750032E-2
6.603007500E-1,2.749999985E-4,-4.537499975E-3,-1.168750040E-2
6.628084420E-1,-3.877500072E-2,-1.924999990E-2,1.031249948E-2
6.653154450E-1,-6.324999779E-2,-2.406249940E-2,2.859999985E-2
6.678213680E-1,-5.224999785E-2,-2.158750035E-2,2.859999985E-2
6.703281350E-1,-1.443750039E-2,-1.677500084E-2,1.388750039E-2
6.728358270E-1,2.474999987E-2,-7.012499962E-3,-8.112499490E-3
6.753425980E-1,3.932499886E-2,7.699999958E-3,-2.392499894E-2
6.778487610E-1,3.575000167E-2,2.722499892E-2,-2.887500077E-2
6.803555280E-1,2.227500081E-2,2.846249938E-2,-2.144999988E-2
6.828632210E-1,2.749999985E-3,1.498750038E-2,-1.924999990E-3
6.853699590E-1,-2.296249941E-2,-3.299999982E-3,1.759999990E-2
6.878760360E-1,-3.396249935E-2,-2.529999986E-2,3.231250122E-2
6.903828600E-1,-2.172499895E-2,-4.001250118E-2,2.859999985E-2
6.928905520E-1,5.224999972E-3,-3.135000169E-2,1.388750039E-2
6.953973280E-1,2.832499892E-2,-5.774999969E-3,-3.162499983E-3
6.979034050E-1,3.451250121E-2,2.846249938E-2,-2.021249942E-2
7.004102490E-1,2.956249937E-2,4.922499880E-2,-2.887500077E-2
7.029179410E-1,1.856249943E-2,3.698749840E-2,-2.763750032E-2
7.054247120E-1,-9.487500414E-3,5.224999972E-3,-1.168750040E-2
7.079307890E-1,-4.372499883E-2,-2.653750032E-2,1.031249948E-2
7.104376330E-1,-5.829999968E-2,-4.124999791E-2,2.488750033E-2
7.129452490E-1,-4.248749837E-2,-3.382499889E-2,2.736249939E-2
7.154520970E-1,-4.674999975E-3,-1.058750041E-2,1.512499992E-2
7.179581740E-1,3.575000167E-2,1.017499994E-2,-3.162499983E-3
7.204649220E-1,4.908749834E-2,2.846249938E-2,-1.911249943E-2
7.229726140E-1,4.908749834E-2,3.093750030E-2,-2.639999986E-2
7.254794770E-1,2.832499892E-2,1.127499994E-2,-1.663750038E-2
7.279855530E-1,-4.674999975E-3,-3.299999982E-3,5.499999970E-4
7.304923690E-1,-3.753750026E-2,-1.429999992E-2,2.131249942E-2
7.330000610E-1,-4.743750021E-2,-1.924999990E-2,2.859999985E-2
7.355069090E-1,-2.777500078E-2,-2.158750035E-2,2.131249942E-2
7.380129860E-1,6.324999966E-3,-1.306249946E-2,2.887499984E-3
7.405197530E-1,3.079999983E-2,1.512499992E-3,-1.663750038E-2
7.430274460E-1,3.451250121E-2,2.227500081E-2,-2.639999986E-2
7.455342130E-1,2.351249941E-2,3.451250121E-2,-2.763750032E-2
7.480403670E-1,6.324999966E-3,1.869999990E-2,-1.292499993E-2
7.505471340E-1,-1.443750039E-2,-8.249999955E-4,5.362499971E-3
7.530548260E-1,-3.519999981E-2,-2.158750035E-2,2.364999987E-2
7.555615980E-1,-3.519999981E-2,-3.629999980E-2,3.107500076E-2
7.580675210E-1,-1.443750039E-2,-3.506249934E-2,2.488750033E-2
7.605745190E-1,1.498750038E-2,-1.677500084E-2,1.031249948E-2
7.630822110E-1,3.575000167E-2,8.937500417E-3,-1.044999994E-2
7.655890590E-1,3.932499886E-2,4.193750024E-2,-2.516249940E-2
7.680949050E-1,3.079999983E-2,4.922499880E-2,-3.244999796E-2
7.706018880E-1,1.374999993E-2,2.474999987E-2,-2.392499894E-2
7.731095810E-1,-1.677500084E-2,-9.487500414E-3,-1.924999990E-3
7.756164290E-1,-5.101250112E-2,-3.258749843E-2,2.007500082E-2
7.781224870E-1,-5.829999968E-2,-4.001250118E-2,3.341250122E-2
7.806292540E-1,-3.024999984E-2,-3.135000169E-2,2.736249939E-2
7.831369310E-1,1.251249947E-2,-5.774999969E-3,1.154999994E-2
7.856437020E-1,4.551250115E-2,1.498750038E-2,-6.874999963E-3
7.881496070E-1,5.775000155E-2,3.217500076E-2,-2.144999988E-2
7.906566050E-1,4.908749834E-2,2.846249938E-2,-2.516249940E-2
7.931640660E-1,1.979999989E-2,1.017499994E-2,-1.787500083E-2
7.956710680E-1,-2.172499895E-2,-7.012499962E-3,4.124999978E-3
7.981769910E-1,-5.224999785E-2,-1.924999990E-2,2.007500082E-2
8.006839890E-1,-5.348749831E-2,-2.048750035E-2,2.241249941E-2
8.031916820E-1,-2.653750032E-2,-1.429999992E-2,1.512499992E-2
8.056984530E-1,1.003750041E-2,-9.487500414E-3,-1.924999990E-3
8.082043760E-1,3.079999983E-2,3.987499978E-3,-1.539999992E-2
8.107113740E-1,3.575000167E-2,1.993750036E-2,-2.639999986E-2
8.132190950E-1,2.598750032E-2,2.474999987E-2,-1.911249943E-2
8.157258660E-1,1.127499994E-2,1.251249947E-2,-3.162499983E-3
8.182317890E-1,-1.072499994E-2,-4.537499975E-3,1.636249945E-2
8.207388010E-1,-3.148749843E-2,-1.924999990E-2,2.983750030E-2
8.232462630E-1,-3.024999984E-2,-3.506249934E-2,2.736249939E-2
8.257532700E-1,-8.249999955E-3,-3.135000169E-2,1.759999990E-2
8.282591930E-1,1.856249943E-2,-7.012499962E-3,-4.399999976E-3
8.307661620E-1,3.698749840E-2,2.598750032E-2,-2.144999988E-2
8.332736240E-1,4.056249931E-2,4.922499880E-2,-3.492499888E-2
8.357806260E-1,3.203750029E-2,4.303750023E-2,-3.368749842E-2
8.382865490E-1,5.224999972E-3,1.251249947E-2,-1.539999992E-2
8.407933160E-1,-3.148749843E-2,-2.048750035E-2,7.837500423E-3
8.433010080E-1,-5.953750014E-2,-4.235000163E-2,3.231250122E-2
8.458080100E-1,-5.829999968E-2,-4.729999974E-2,3.588749841E-2
8.483139330E-1,-2.419999987E-2,-2.653750032E-2,2.488750033E-2
8.508207010E-1,2.227500081E-2,-2.062499989E-3,6.599999964E-3
8.533283930E-1,5.279999971E-2,2.474999987E-2,-1.539999992E-2
8.558354000E-1,5.884999782E-2,3.946249932E-2,-2.763750032E-2
8.583413230E-1,4.427500069E-2,3.093750030E-2,-3.011249937E-2
8.608480950E-1,1.251249947E-2,8.937500417E-3,-1.663750038E-2
8.633557880E-1,-3.396249935E-2,-1.058750041E-2,4.124999978E-3
8.658625590E-1,-5.953750014E-2,-2.406249940E-2,2.131249942E-2
8.683687130E-1,-5.348749831E-2,-2.653750032E-2,2.612499893E-2
8.708754800E-1,-1.924999990E-2,-1.677500084E-2,1.512499992E-2
8.733832050E-1,1.979999989E-2,-8.249999955E-3,5.499999970E-4
8.758899760E-1,4.303750023E-2,8.937500417E-3,-1.663750038E-2
8.783960530E-1,4.908749834E-2,2.474999987E-2,-2.516249940E-2
8.809028980E-1,3.808749840E-2,2.598750032E-2,-2.144999988E-2
8.834105900E-1,1.003750041E-2,1.498750038E-2,-9.349999949E-3
8.859173610E-1,-2.543750033E-2,-4.537499975E-3,1.154999994E-2
8.884234380E-1,-4.743750021E-2,-2.406249940E-2,2.488750033E-2
8.909302820E-1,-4.248749837E-2,-3.506249934E-2,2.736249939E-2
8.934379750E-1,-1.801249944E-2,-2.529999986E-2,1.264999993E-2
8.959447460E-1,1.498750038E-2,-7.012499962E-3,-6.874999963E-3
8.984508230E-1,3.203750029E-2,2.227500081E-2,-2.268750034E-2
9.009576530E-1,3.808749840E-2,4.427500069E-2,-3.368749842E-2
9.034652680E-1,3.079999983E-2,3.698749840E-2,-2.763750032E-2
9.059720970E-1,7.562499959E-3,7.699999958E-3,-8.112499490E-3
9.084781740E-1,-2.419999987E-2,-1.924999990E-2,1.636249945E-2
9.109850180E-1,-4.743750021E-2,-4.235000163E-2,3.231250122E-2
9.134926340E-1,-4.248749837E-2,-4.358749837E-2,3.231250122E-2
9.159994820E-1,-9.487500414E-3,-2.282499894E-2,2.131249942E-2
9.185055590E-1,2.832499892E-2,1.017499994E-2,-1.924999990E-3
9.210123300E-1,5.527500063E-2,3.822499886E-2,-2.144999988E-2
9.235200230E-1,5.775000155E-2,4.317500070E-2,-3.616249934E-2
9.260268710E-1,3.698749840E-2,2.598750032E-2,-3.244999796E-2
9.285329200E-1,-2.199999988E-3,-2.062499989E-3,-1.787500083E-2
9.310396870E-1,-4.619999975E-2,-1.924999990E-2,7.837500423E-3
9.335473790E-1,-6.929999590E-2,-2.901249938E-2,3.107500076E-2
9.360542270E-1,-5.843750015E-2,-2.653750032E-2,3.231250122E-2
9.385603040E-1,-2.172499895E-2,-1.801249944E-2,2.007500082E-2
9.410671440E-1,2.227500081E-2,-5.774999969E-3,-6.874999963E-4
9.435747600E-1,5.156249925E-2,1.374999993E-2,-1.911249943E-2
9.460816080E-1,5.775000155E-2,2.846249938E-2,-3.011249937E-2
9.485876850E-1,4.551250115E-2,2.969999984E-2,-2.639999986E-2
9.510944520E-1,1.251249947E-2,1.498750038E-2,-8.112499490E-3
9.536021440E-1,-2.653750032E-2,-3.299999982E-3,1.388750039E-2
9.561089160E-1,-5.348749831E-2,-2.777500078E-2,2.983750030E-2
9.586148390E-1,-4.743750021E-2,-4.001250118E-2,2.736249939E-2
9.611218370E-1,-1.801249944E-2,-3.024999984E-2,1.512499992E-2
9.636295290E-1,1.732499897E-2,-9.487500414E-3,-3.162499983E-3
9.661362850E-1,4.179999977E-2,2.351249941E-2,-2.144999988E-2
9.686424390E-1,4.784999788E-2,4.551250115E-2,-3.121249937E-2
9.711492060E-1,3.451250121E-2,3.822499886E-2,-3.011249937E-2
9.736569040E-1,2.749999985E-4,8.937500417E-3,-1.168750040E-2
9.761637520E-1,-4.001250118E-2,-2.158750035E-2,1.264999993E-2
9.786698430E-1,-6.077500060E-2,-4.358749837E-2,2.859999985E-2
9.811766100E-1,-5.101250112E-2,-3.877500072E-2,3.231250122E-2
9.836843020E-1,-1.677500084E-2,-1.429999992E-2,1.883750036E-2
9.861910740E-1,2.832499892E-2,1.017499994E-2,-6.874999963E-4
9.886972270E-1,5.884999782E-2,2.722499892E-2,-1.911249943E-2
9.912039950E-1,6.256250292E-2,3.327500075E-2,-3.121249937E-2
9.937116870E-1,4.303750023E-2,2.227500081E-2,-2.639999986E-2
9.962184580E-1,-9.624999948E-4,-8.249999955E-4,-9.349999949E-3
9.987243810E-1,-4.248749837E-2,-1.677500084E-2,1.388750039E-2
1.001231397E0,-6.819999963E-2,-2.777500078E-2,3.107500076E-2
1.003738859E0,-5.843750015E-2,-2.777500078E-2,3.107500076E-2
1.006245861E0,-2.296249941E-2,-2.048750035E-2,1.636249945E-2
1.008751747E0,2.351249941E-2,-2.062499989E-3,-8.112499490E-3
1.011258745E0,5.527500063E-2,1.869999990E-2,-2.516249940E-2
1.013766456E0,6.132499874E-2,3.575000167E-2,-3.616249934E-2
1.016273227E0,4.179999977E-2,3.451250121E-2,-2.887500077E-2
1.018779151E0,6.324999966E-3,1.622499898E-2,-8.112499490E-3
1.021286167E0,-3.024999984E-2,-9.487500414E-3,1.512499992E-2
1.023793628E0,-5.596249923E-2,-3.258749843E-2,3.107500076E-2
1.026300626E0,-5.224999785E-2,-4.482499883E-2,3.231250122E-2
1.028806549E0,-2.172499895E-2,-3.753750026E-2,1.883750036E-2
1.031313316E0,1.498750038E-2,-8.249999955E-3,-1.924999990E-3
1.033821009E0,4.303750023E-2,2.722499892E-2,-2.268750034E-2
1.036328011E0,4.908749834E-2,5.169999972E-2,-3.368749842E-2
1.038833934E0,3.575000167E-2,4.193750024E-2,-3.244999796E-2
1.041340701E0,2.749999985E-4,1.127499994E-2,-1.292499993E-2
1.043848393E0,-3.753750026E-2,-2.158750035E-2,7.837500423E-3
1.046355395E0,-5.953750014E-2,-4.729999974E-2,2.983750030E-2
1.048861318E0,-4.977500066E-2,-4.235000163E-2,3.341250122E-2
1.051368066E0,-1.567500085E-2,-2.048750035E-2,2.488750033E-2
1.053875758E0,2.956249937E-2,6.462499965E-3,7.837500423E-3
1.056382510E0,6.256250292E-2,2.846249938E-2,-1.663750038E-2
1.058888664E0,6.984999776E-2,3.698749840E-2,-2.887500077E-2
1.061395431E0,4.675000161E-2,2.474999987E-2,-3.492499888E-2
1.063903105E0,1.512499992E-3,6.462499965E-3,-1.663750038E-2
1.066409876E0,-4.496249929E-2,-1.306249946E-2,6.599999964E-3
1.068916030E0,-7.177499682E-2,-2.158750035E-2,2.612499893E-2
1.071422797E0,-6.819999963E-2,-2.529999986E-2,2.983750030E-2
1.073930489E0,-3.024999984E-2,-2.048750035E-2,1.759999990E-2
1.076437261E0,1.374999993E-2,-1.182499994E-2,-6.874999963E-4
1.078943337E0,4.551250115E-2,6.462499965E-3,-2.021249942E-2
1.081450182E0,6.008749828E-2,2.598750032E-2,-2.887500077E-2
1.083957874E0,4.784999788E-2,3.327500075E-2,-2.392499894E-2
1.086464645E0,1.608750038E-2,2.351249941E-2,-5.637499969E-3
1.088970722E0,-2.048750035E-2,-2.062499989E-3,1.759999990E-2
1.091477566E0,-4.124999791E-2,-2.777500078E-2,2.983750030E-2
1.093985259E0,-4.124999791E-2,-4.358749837E-2,2.983750030E-2
1.096492030E0,-1.924999990E-2,-3.506249934E-2,1.512499992E-2
1.098998102E0,1.608750038E-2,-5.774999969E-3,-4.399999976E-3
1.101504946E0,3.932499886E-2,3.093750030E-2,-2.392499894E-2
1.104012561E0,4.303750023E-2,5.293750018E-2,-3.368749842E-2
1.106519424E0,2.832499892E-2,4.317500070E-2,-3.121249937E-2
1.109025501E0,-9.624999948E-4,1.127499994E-2,-1.539999992E-2
1.111532259E0,-3.519999981E-2,-2.529999986E-2,1.031249948E-2
1.114040028E0,-5.472499877E-2,-4.606249928E-2,3.107500076E-2
1.116546799E0,-4.977500066E-2,-4.606249928E-2,3.836249933E-2
1.119052914E0,-2.172499895E-2,-2.048750035E-2,2.736249939E-2
1.121559681E0,2.103750035E-2,3.987499978E-3,9.074999951E-3
1.124067451E0,5.775000155E-2,2.722499892E-2,-1.292499993E-2
1.126574222E0,6.875000149E-2,4.069999978E-2,-3.244999796E-2
1.129080299E0,4.908749834E-2,3.093750030E-2,-3.368749842E-2
1.131587066E0,1.251249947E-2,1.017499994E-2,-2.021249942E-2
1.134094758E0,-3.148749843E-2,-1.058750041E-2,5.499999970E-4
1.136601529E0,-6.324999779E-2,-2.529999986E-2,2.488750033E-2
1.139107683E0,-6.929999590E-2,-3.258749843E-2,3.341250122E-2
1.141614451E0,-3.877500072E-2,-2.777500078E-2,2.859999985E-2
1.144122201E0,7.562499959E-3,-1.801249944E-2,7.837500423E-3
1.146628972E0,4.551250115E-2,4.124999978E-4,-9.349999949E-3
1.149135126E0,6.256250292E-2,2.474999987E-2,-2.516249940E-2
1.151641888E0,5.651250109E-2,3.946249932E-2,-2.887500077E-2
1.154149581E0,2.598750032E-2,2.846249938E-2,-1.416249946E-2
1.156656429E0,-1.196249947E-2,7.699999958E-3,2.887499984E-3
1.159162506E0,-4.248749837E-2,-2.048750035E-2,2.364999987E-2
1.161669268E0,-5.348749831E-2,-3.877500072E-2,2.488750033E-2
1.164176960E0,-3.753750026E-2,-3.258749843E-2,1.759999990E-2
1.166683808E0,-2.199999988E-3,-1.182499994E-2,1.649999991E-3
1.169189693E0,2.956249937E-2,1.498750038E-2,-1.663750038E-2
1.171696691E0,4.551250115E-2,3.822499886E-2,-2.392499894E-2
1.174204143E0,4.179999977E-2,4.317500070E-2,-2.516249940E-2
1.176711145E0,2.103750035E-2,1.622499898E-2,-1.168750040E-2
1.179217299E0,-1.196249947E-2,-1.801249944E-2,7.837500423E-3
1.181724066E0,-3.877500072E-2,-4.124999791E-2,2.488750033E-2
1.184231758E0,-5.472499877E-2,-4.358749837E-2,3.588749841E-2
1.186738530E0,-3.519999981E-2,-2.529999986E-2,2.859999985E-2
1.189244453E0,3.987499978E-3,1.512499992E-3,9.074999951E-3
1.191751451E0,4.551250115E-2,2.722499892E-2,-1.416249946E-2
1.194259143E0,6.627500057E-2,3.822499886E-2,-3.368749842E-2
1.196765914E0,5.775000155E-2,3.575000167E-2,-3.863750026E-2
1.199271818E0,2.474999987E-2,1.498750038E-2,-2.763750032E-2
1.201778816E0,-1.801249944E-2,-4.537499975E-3,-5.637499969E-3
1.204286509E0,-5.843750015E-2,-2.282499894E-2,2.131249942E-2
1.206793280E0,-7.424999774E-2,-3.506249934E-2,3.959999979E-2
1.209299203E0,-5.719999969E-2,-3.258749843E-2,3.712499887E-2
1.211806201E0,-1.196249947E-2,-2.529999986E-2,1.636249945E-2
1.214313663E0,3.451250121E-2,-8.249999955E-3,-5.637499969E-3
1.216820665E0,6.256250292E-2,2.117500082E-2,-2.516249940E-2
1.219326588E0,6.379999965E-2,4.551250115E-2,-3.121249937E-2
1.221833586E0,3.932499886E-2,3.698749840E-2,-2.639999986E-2
1.224341047E0,-9.624999948E-4,1.622499898E-2,-6.874999963E-3
1.226848049E0,-3.877500072E-2,-1.553750038E-2,1.512499992E-2
1.229353972E0,-5.596249923E-2,-4.001250118E-2,2.612499893E-2
1.231860740E0,-4.372499883E-2,-4.235000163E-2,2.612499893E-2
1.234368432E0,-1.567500085E-2,-2.282499894E-2,1.154999994E-2
1.236875434E0,1.979999989E-2,4.124999978E-4,-4.399999976E-3
1.239381371E0,4.303750023E-2,2.969999984E-2,-2.021249942E-2
1.241888138E0,4.784999788E-2,4.427500069E-2,-2.763750032E-2
1.244395849E0,3.203750029E-2,2.846249938E-2,-2.516249940E-2
1.246902852E0,3.987499978E-3,4.124999978E-4,-9.349999949E-3
1.249408780E0,-3.148749843E-2,-2.777500078E-2,1.264999993E-2
1.251915547E0,-5.472499877E-2,-3.877500072E-2,2.859999985E-2
1.254423239E0,-4.977500066E-2,-3.382499889E-2,2.983750030E-2
1.256930010E0,-1.924999990E-2,-1.058750041E-2,1.636249945E-2
1.259436164E0,2.351249941E-2,1.127499994E-2,-4.399999976E-3
1.261943162E0,5.651250109E-2,2.722499892E-2,-2.392499894E-2
1.264450624E0,6.379999965E-2,3.698749840E-2,-3.616249934E-2
1.266957626E0,4.303750023E-2,2.474999987E-2,-3.121249937E-2
1.269463472E0,1.512499992E-3,3.987499978E-3,-1.168750040E-2
1.271970316E0,-4.001250118E-2,-1.801249944E-2,1.512499992E-2
1.274478008E0,-6.696250290E-2,-3.024999984E-2,3.464999795E-2
1.276984780E0,-6.572499871E-2,-3.629999980E-2,3.464999795E-2
1.279490886E0,-3.024999984E-2,-2.529999986E-2,2.241249941E-2
1.281997730E0,1.979999989E-2,-8.249999955E-3,-6.874999963E-4
1.284505393E0,5.775000155E-2,1.746249944E-2,-2.144999988E-2
1.287012164E0,6.875000149E-2,3.822499886E-2,-3.492499888E-2
1.289518299E0,5.279999971E-2,4.069999978E-2,-3.244999796E-2
1.292025066E0,1.608750038E-2,2.474999987E-2,-1.416249946E-2
1.294532759E0,-2.296249941E-2,-5.774999969E-3,9.074999951E-3
1.297039530E0,-5.101250112E-2,-3.258749843E-2,2.859999985E-2
1.299545684E0,-5.843750015E-2,-4.482499883E-2,3.341250122E-2
1.302052451E0,-3.753750026E-2,-3.753750026E-2,2.241249941E-2
1.304560143E0,-9.624999948E-4,-1.306249946E-2,4.124999978E-3
1.307066915E0,3.451250121E-2,1.869999990E-2,-1.539999992E-2
1.309572991E0,5.156249925E-2,4.193750024E-2,-2.763750032E-2
1.312079763E0,4.303750023E-2,4.317500070E-2,-3.121249937E-2
1.314587532E0,1.732499897E-2,1.374999993E-2,-1.787500083E-2
1.317094289E0,-1.801249944E-2,-1.429999992E-2,1.649999991E-3
1.319600366E0,-4.977500066E-2,-3.753750026E-2,2.364999987E-2
1.322107210E0,-5.472499877E-2,-3.877500072E-2,3.464999795E-2
1.324614908E0,-3.272499889E-2,-2.158750035E-2,2.859999985E-2
1.327121679E0,1.003750041E-2,-2.062499989E-3,1.264999993E-2
1.329627737E0,5.156249925E-2,1.993750036E-2,-1.044999994E-2
1.332134581E0,7.108750194E-2,3.327500075E-2,-3.011249937E-2
1.334642201E0,6.008749828E-2,3.451250121E-2,-3.863750026E-2
1.337149049E0,2.103750035E-2,1.622499898E-2,-2.763750032E-2
1.339655126E0,-2.777500078E-2,-4.537499975E-3,-4.399999976E-3
1.342161971E0,-6.696250290E-2,-2.158750035E-2,2.007500082E-2
1.344669586E0,-7.672499865E-2,-3.382499889E-2,3.464999795E-2
1.347176434E0,-5.348749831E-2,-3.135000169E-2,2.859999985E-2
1.349682511E0,-7.012499962E-3,-1.924999990E-2,1.031249948E-2
1.352189278E0,3.932499886E-2,-8.249999955E-4,-1.044999994E-2
1.354696971E0,6.627500057E-2,2.117500082E-2,-2.639999986E-2
1.357203819E0,6.627500057E-2,4.317500070E-2,-3.011249937E-2
1.359709910E0,4.303750023E-2,3.575000167E-2,-2.021249942E-2
1.362216677E0,6.324999966E-3,1.374999993E-2,1.649999991E-3
1.364724374E0,-2.901249938E-2,-1.677500084E-2,1.759999990E-2
1.367231145E0,-4.977500066E-2,-4.124999791E-2,2.983750030E-2
1.369737299E0,-4.977500066E-2,-4.606249928E-2,2.488750033E-2
1.372244062E0,-2.543750033E-2,-2.529999986E-2,9.074999951E-3
1.374751754E0,1.127499994E-2,5.224999972E-3,-8.112499490E-3
1.377258530E0,3.698749840E-2,3.451250121E-2,-2.516249940E-2
1.379764684E0,4.551250115E-2,4.798749834E-2,-3.492499888E-2
1.382271451E0,2.956249937E-2,3.217500076E-2,-3.011249937E-2
1.384779144E0,2.749999985E-3,-3.299999982E-3,-1.168750040E-2
1.387285915E0,-2.653750032E-2,-3.024999984E-2,1.512499992E-2
1.389791838E0,-4.853750020E-2,-4.235000163E-2,3.341250122E-2
1.392298836E0,-4.743750021E-2,-3.506249934E-2,4.083750024E-2
1.394806528E0,-1.801249944E-2,-1.306249946E-2,2.488750033E-2
1.397313299E0,2.351249941E-2,6.462499965E-3,5.499999970E-4
1.399819222E0,5.884999782E-2,2.969999984E-2,-2.268750034E-2
1.402326229E0,6.875000149E-2,4.193750024E-2,-4.111250117E-2
1.404833922E0,4.303750023E-2,3.093750030E-2,-3.863750026E-2
1.407340693E0,2.749999985E-4,7.699999958E-3,-2.144999988E-2
1.409846568E0,-4.496249929E-2,-1.429999992E-2,9.074999951E-3
1.412353566E0,-7.424999774E-2,-3.024999984E-2,2.983750030E-2
1.414861028E0,-7.177499682E-2,-4.124999791E-2,3.836249933E-2
1.417368030E0,-4.001250118E-2,-3.135000169E-2,2.983750030E-2
1.419874466E0,7.562499959E-3,-1.677500084E-2,9.074999951E-3
1.422381041E0,5.156249925E-2,5.224999972E-3,-1.044999994E-2
1.424888427E0,7.356250286E-2,3.327500075E-2,-3.011249937E-2
1.427395434E0,6.751249731E-2,4.675000161E-2,-3.244999796E-2
1.429901357E0,3.808749840E-2,3.575000167E-2,-2.392499894E-2
1.432408321E0,-2.199999988E-3,7.699999958E-3,-3.162499983E-3
1.434915783E0,-3.877500072E-2,-2.048750035E-2,1.636249945E-2
1.437422785E0,-5.953750014E-2,-4.235000163E-2,2.488750033E-2
1.439928708E0,-5.348749831E-2,-3.753750026E-2,2.364999987E-2
1.442435706E0,-2.543750033E-2,-1.801249944E-2,7.837500423E-3
1.444943168E0,1.127499994E-2,7.699999958E-3,-8.112499490E-3
1.447450170E0,3.575000167E-2,2.846249938E-2,-2.021249942E-2
1.449956093E0,4.303750023E-2,4.193750024E-2,-2.516249940E-2
1.452463091E0,2.956249937E-2,2.117500082E-2,-1.787500083E-2
1.454970552E0,5.087499972E-3,-8.249999955E-3,-6.874999963E-4
1.457477536E0,-2.667500079E-2,-3.135000169E-2,2.131249942E-2
1.459983459E0,-4.619999975E-2,-4.001250118E-2,3.464999795E-2
1.462490207E0,-4.001250118E-2,-2.777500078E-2,3.107500076E-2
1.464997899E0,-9.487500414E-3,-8.249999955E-4,1.388750039E-2
1.467504670E0,3.575000167E-2,2.117500082E-2,-9.349999949E-3
1.470010852E0,6.379999965E-2,3.698749840E-2,-3.011249937E-2
1.472517619E0,6.379999965E-2,3.822499886E-2,-4.111250117E-2
1.475025312E0,3.698749840E-2,2.227500081E-2,-3.368749842E-2
1.477532083E0,-9.487500414E-3,-2.062499989E-3,-1.044999994E-2
1.480038237E0,-4.977500066E-2,-2.158750035E-2,1.636249945E-2
1.482545004E0,-7.672499865E-2,-3.753750026E-2,3.959999979E-2
1.485052696E0,-7.424999774E-2,-4.124999791E-2,4.331250116E-2
1.487559467E0,-4.001250118E-2,-3.024999984E-2,2.859999985E-2
1.490065621E0,1.374999993E-2,-1.182499994E-2,4.124999978E-3
1.492572388E0,6.008749828E-2,1.017499994E-2,-1.911249943E-2
1.495080081E0,8.084999770E-2,4.317500070E-2,-3.492499888E-2
1.497586852E0,6.627500057E-2,5.046249926E-2,-3.739999980E-2
1.500093002E0,3.203750029E-2,3.451250121E-2,-2.144999988E-2
1.502599769E0,-1.196249947E-2,2.749999985E-3,5.499999970E-4
1.505107475E0,-4.853750020E-2,-2.653750032E-2,2.254999988E-2
1.507614247E0,-6.448750198E-2,-4.606249928E-2,3.341250122E-2
1.510120357E0,-5.101250112E-2,-4.235000163E-2,2.859999985E-2
1.512627201E0,-1.567500085E-2,-2.048750035E-2,1.264999993E-2
1.515134893E0,2.227500081E-2,6.462499965E-3,-3.162499983E-3
1.517641636E0,4.675000161E-2,3.327500075E-2,-1.911249943E-2
1.520147713E0,4.784999788E-2,4.069999978E-2,-2.887500077E-2
1.522654557E0,3.079999983E-2,2.117500082E-2,-2.021249942E-2
1.525162249E0,-9.624999948E-4,-8.249999955E-3,-5.637499969E-3
1.527669020E0,-3.272499889E-2,-2.653750032E-2,1.264999993E-2
1.530175097E0,-5.101250112E-2,-3.382499889E-2,2.983750030E-2
1.532681941E0,-4.001250118E-2,-1.924999990E-2,2.736249939E-2
1.535189556E0,-4.674999975E-3,4.124999978E-4,1.154999994E-2
1.537696405E0,3.327500075E-2,1.498750038E-2,-1.044999994E-2
1.540202482E0,5.884999782E-2,2.598750032E-2,-2.639999986E-2
1.542709249E0,5.775000155E-2,2.969999984E-2,-3.616249934E-2
1.545216941E0,3.079999983E-2,1.869999990E-2,-2.639999986E-2
1.547723789E0,-9.487500414E-3,-2.062499989E-3,-6.874999963E-4
1.550229866E0,-4.743750021E-2,-1.924999990E-2,2.254999988E-2
1.552736653E0,-7.301250100E-2,-3.753750026E-2,4.083750024E-2
1.555244346E0,-6.572499871E-2,-3.877500072E-2,3.836249933E-2
1.557751194E0,-2.777500078E-2,-2.653750032E-2,2.131249942E-2
1.560257266E0,2.103750035E-2,-4.537499975E-3,-3.162499983E-3
1.562764033E0,6.379999965E-2,2.227500081E-2,-2.639999986E-2
1.565271720E0,7.851249725E-2,4.798749834E-2,-3.863750026E-2
1.567778568E0,6.256250292E-2,5.046249926E-2,-3.616249934E-2
1.570284655E0,2.474999987E-2,2.598750032E-2,-1.663750038E-2
1.572791423E0,-1.677500084E-2,-3.299999982E-3,7.837500423E-3
1.575299115E0,-5.101250112E-2,-3.629999980E-2,2.736249939E-2
1.577805886E0,-6.448750198E-2,-5.335000157E-2,3.588749841E-2
1.580312040E0,-4.977500066E-2,-3.877500072E-2,2.612499893E-2
1.582818807E0,-1.319999993E-2,-1.306249946E-2,1.264999993E-2
1.585326500E0,2.227500081E-2,1.251249947E-2,-9.349999949E-3
1.587833271E0,4.675000161E-2,3.822499886E-2,-2.639999986E-2
1.590339194E0,4.784999788E-2,4.193750024E-2,-3.244999796E-2
1.592846192E0,2.956249937E-2,1.622499898E-2,-2.268750034E-2
1.595353864E0,-2.199999988E-3,-8.249999955E-3,-1.924999990E-3
1.597860635E0,-3.148749843E-2,-2.653750032E-2,1.883750036E-2
1.600366574E0,-4.743750021E-2,-3.506249934E-2,3.588749841E-2
1.602873572E0,-3.753750026E-2,-2.406249940E-2,3.107500076E-2
1.605381278E0,-4.674999975E-3,-3.299999982E-3,1.636249945E-2
1.607888126E0,3.698749840E-2,8.937500417E-3,-5.637499969E-3
1.610393972E0,6.503749639E-2,2.598750032E-2,-2.763750032E-2
1.612900984E0,6.256250292E-2,3.217500076E-2,-3.739999980E-2
1.615408446E0,3.079999983E-2,2.474999987E-2,-3.244999796E-2
1.617915448E0,-1.319999993E-2,5.224999972E-3,-1.044999994E-2
1.620421371E0,-5.472499877E-2,-1.553750038E-2,1.512499992E-2
1.622928369E0,-7.796250284E-2,-3.382499889E-2,3.341250122E-2
1.625435830E0,-6.943749636E-2,-3.877500072E-2,3.712499887E-2
1.627942832E0,-3.272499889E-2,-2.901249938E-2,2.131249942E-2
1.630448755E0,1.979999989E-2,-9.487500414E-3,-6.874999963E-4
1.632955754E0,6.256250292E-2,1.869999990E-2,-2.268750034E-2
1.635463461E0,7.851249725E-2,4.193750024E-2,-3.244999796E-2
1.637970232E0,6.751249731E-2,4.798749834E-2,-2.763750032E-2
1.640476107E0,3.327500075E-2,2.598750032E-2,-1.292499993E-2
1.642983105E0,-9.487500414E-3,-5.774999969E-3,1.031249948E-2
1.645490797E0,-4.853750020E-2,-3.258749843E-2,2.612499893E-2
1.647997569E0,-6.572499871E-2,-4.853750020E-2,3.107500076E-2
1.650503492E0,-5.719999969E-2,-3.506249934E-2,2.254999988E-2
1.653010231E0,-2.543750033E-2,-1.182499994E-2,5.362499971E-3
1.655517923E0,1.498750038E-2,1.498750038E-2,-1.044999994E-2
1.658024925E0,4.427500069E-2,3.575000167E-2,-2.763750032E-2
1.660530848E0,5.403750017E-2,4.069999978E-2,-3.244999796E-2
1.663037846E0,4.056249931E-2,2.227500081E-2,-2.516249940E-2
1.665545308E0,1.003750041E-2,-4.537499975E-3,-4.399999976E-3
1.668052310E0,-2.296249941E-2,-2.653750032E-2,2.007500082E-2
1.670558233E0,-4.619999975E-2,-3.506249934E-2,3.712499887E-2
1.673065000E0,-4.372499883E-2,-2.777500078E-2,3.588749841E-2
1.675572693E0,-1.801249944E-2,-1.058750041E-2,1.636249945E-2
1.678079699E0,2.351249941E-2,5.224999972E-3,-5.637499969E-3
1.680585622E0,5.527500063E-2,2.474999987E-2,-2.887500077E-2
1.683092389E0,5.651250109E-2,3.698749840E-2,-3.987500072E-2
1.685600062E0,3.079999983E-2,2.846249938E-2,-3.368749842E-2
1.688106833E0,-7.012499962E-3,8.937500417E-3,-1.416249946E-2
1.690613005E0,-4.619999975E-2,-1.553750038E-2,1.388750039E-2
1.693119773E0,-7.053750008E-2,-3.629999980E-2,3.464999795E-2
1.695627451E0,-6.572499871E-2,-4.482499883E-2,4.083750024E-2
1.698134222E0,-3.272499889E-2,-3.258749843E-2,2.983750030E-2
1.700640376E0,1.498750038E-2,-1.306249946E-2,9.074999951E-3
1.703147143E0,5.884999782E-2,1.374999993E-2,-1.292499993E-2
1.705654836E0,8.084999770E-2,4.069999978E-2,-3.011249937E-2
1.708161607E0,7.356250286E-2,4.922499880E-2,-3.492499888E-2
1.710667684E0,4.056249931E-2,3.451250121E-2,-2.639999986E-2
1.713174528E0,-3.437499981E-3,6.462499965E-3,-8.112499490E-3
1.715682220E0,-4.619999975E-2,-2.048750035E-2,1.264999993E-2
1.718188991E0,-7.177499682E-2,-4.482499883E-2,2.736249939E-2
1.720695068E0,-6.696250290E-2,-4.124999791E-2,2.612499893E-2
1.723201912E0,-4.001250118E-2,-2.158750035E-2,1.264999993E-2
1.725709619E0,2.749999985E-4,1.512499992E-3,-1.924999990E-3
1.728216390E0,3.698749840E-2,2.227500081E-2,-1.911249943E-2
1.730722467E0,5.775000155E-2,3.698749840E-2,-2.887500077E-2
1.733229307E0,5.032499880E-2,2.474999987E-2,-2.268750034E-2
1.735736923E0,2.474999987E-2,4.124999978E-4,-5.637499969E-3
1.738243771E0,-1.072499994E-2,-1.677500084E-2,1.512499992E-2
1.740749925E0,-3.877500072E-2,-3.258749843E-2,2.859999985E-2
1.743256692E0,-4.372499883E-2,-2.653750032E-2,3.107500076E-2
1.745764384E0,-2.172499895E-2,-9.487500414E-3,1.636249945E-2
1.748271155E0,1.498750038E-2,8.937500417E-3,-1.924999990E-3
1.750777232E0,4.675000161E-2,2.474999987E-2,-2.392499894E-2
1.753283999E0,5.651250109E-2,3.575000167E-2,-3.863750026E-2
1.755791716E0,3.932499886E-2,2.846249938E-2,-3.739999980E-2
1.758298564E0,2.749999985E-3,7.699999958E-3,-2.144999988E-2
1.760804660E0,-3.643750027E-2,-1.182499994E-2,7.837500423E-3
1.763311427E0,-6.696250290E-2,-3.024999984E-2,3.341250122E-2
1.765819095E0,-6.943749636E-2,-4.482499883E-2,4.331250116E-2
1.768325944E0,-4.743750021E-2,-3.877500072E-2,3.588749841E-2
1.770832021E0,-3.437499981E-3,-1.924999990E-2,1.388750039E-2
1.773338788E0,4.908749834E-2,5.224999972E-3,-1.044999994E-2
1.775846480E0,8.084999770E-2,3.822499886E-2,-3.244999796E-2
1.778353328E0,8.208750188E-2,5.527500063E-2,-4.111250117E-2
1.780859405E0,5.156249925E-2,4.551250115E-2,-3.244999796E-2
1.783366249E0,5.087499972E-3,1.746249944E-2,-1.539999992E-2
1.785873865E0,-4.001250118E-2,-1.553750038E-2,9.074999951E-3
1.788380713E0,-6.819999963E-2,-4.482499883E-2,2.983750030E-2
1.790886559E0,-7.053750008E-2,-5.224999785E-2,3.712499887E-2
1.793393557E0,-4.853750020E-2,-3.629999980E-2,2.612499893E-2
1.795901249E0,-5.774999969E-3,-1.058750041E-2,1.031249948E-2
1.798408103E0,3.327500075E-2,1.869999990E-2,-8.112499490E-3
1.800913949E0,5.651250109E-2,3.822499886E-2,-2.763750032E-2
1.803420947E0,5.527500063E-2,3.575000167E-2,-3.121249937E-2
1.805928624E0,3.079999983E-2,1.622499898E-2,-2.268750034E-2
1.808435472E0,-4.674999975E-3,-7.012499962E-3,-3.162499983E-3
1.810941554E0,-3.148749843E-2,-2.158750035E-2,1.512499992E-2
1.813448321E0,-4.372499883E-2,-2.406249940E-2,2.488750033E-2
1.815956014E0,-3.272499889E-2,-1.306249946E-2,2.131249942E-2
1.818462799E0,-2.199999988E-3,-2.062499989E-3,4.124999978E-3
1.820968953E0,3.079999983E-2,1.017499994E-2,-1.292499993E-2
1.823475720E0,4.908749834E-2,2.117500082E-2,-2.639999986E-2
1.825983427E0,4.427500069E-2,2.598750032E-2,-3.011249937E-2
1.828490199E0,1.608750038E-2,1.251249947E-2,-1.663750038E-2
1.830996122E0,-2.172499895E-2,-2.062499989E-3,4.124999978E-3
1.833503120E0,-5.596249923E-2,-2.529999986E-2,2.736249939E-2
1.836010812E0,-6.943749636E-2,-4.124999791E-2,3.959999979E-2
1.838517583E0,-5.472499877E-2,-3.753750026E-2,3.341250122E-2
1.841023506E0,-1.319999993E-2,-2.048750035E-2,1.264999993E-2
1.843530504E0,3.451250121E-2,5.224999972E-3,-8.112499490E-3
1.846038197E0,7.232499868E-2,3.451250121E-2,-3.011249937E-2
1.848544963E0,8.084999770E-2,5.775000155E-2,-4.221250117E-2
1.851050886E0,6.008749828E-2,4.922499880E-2,-3.739999980E-2
1.853557884E0,2.103750035E-2,2.117500082E-2,-2.021249942E-2
1.856065345E0,-2.296249941E-2,-1.182499994E-2,7.837500423E-3
1.858572361E0,-6.077500060E-2,-4.482499883E-2,3.107500076E-2
1.861078285E0,-7.424999774E-2,-5.706249923E-2,3.959999979E-2
1.863585283E0,-6.324999779E-2,-4.124999791E-2,3.464999795E-2
1.866092759E0,-2.667500079E-2,-1.677500084E-2,1.512499992E-2
1.868599761E0,1.856249943E-2,1.127499994E-2,-5.637499969E-3
1.871105684E0,5.279999971E-2,3.698749840E-2,-2.763750032E-2
1.873612460E0,6.256250292E-2,4.069999978E-2,-3.492499888E-2
1.876120153E0,4.427500069E-2,2.474999987E-2,-3.011249937E-2
1.878627155E0,1.003750041E-2,3.987499978E-3,-1.292499993E-2
1.881133078E0,-2.296249941E-2,-1.429999992E-2,1.264999993E-2
1.883639845E0,-4.372499883E-2,-3.135000169E-2,2.859999985E-2
1.886147537E0,-4.124999791E-2,-2.777500078E-2,3.231250122E-2
1.888654539E0,-1.801249944E-2,-1.553750038E-2,1.883750036E-2
1.891160462E0,1.732499897E-2,-2.062499989E-3,1.649999991E-3
1.893667230E0,5.032499880E-2,1.622499898E-2,-1.911249943E-2
1.896174922E0,5.403750017E-2,2.969999984E-2,-3.244999796E-2
1.898681679E0,3.575000167E-2,2.598750032E-2,-3.011249937E-2
1.901187833E0,-4.674999975E-3,7.699999958E-3,-1.416249946E-2
1.903694600E0,-4.248749837E-2,-1.306249946E-2,9.074999951E-3
1.906202264E0,-6.572499871E-2,-3.382499889E-2,2.736249939E-2
1.908709035E0,-6.324999779E-2,-3.877500072E-2,3.231250122E-2
1.911215065E0,-3.519999981E-2,-2.653750032E-2,2.254999988E-2
1.913721909E0,1.127499994E-2,-4.537499975E-3,1.649999991E-3
1.916229601E0,5.527500063E-2,1.869999990E-2,-1.539999992E-2
1.918736372E0,7.727500051E-2,4.069999978E-2,-3.011249937E-2
1.921242526E0,6.984999776E-2,4.551250115E-2,-3.368749842E-2
1.923749294E0,3.808749840E-2,2.598750032E-2,-1.663750038E-2
1.926256986E0,-3.437499981E-3,-3.299999982E-3,1.649999991E-3
1.928763757E0,-4.496249929E-2,-3.258749843E-2,2.488750033E-2
1.931269834E0,-7.177499682E-2,-4.853750020E-2,3.464999795E-2
1.933776678E0,-6.943749636E-2,-4.358749837E-2,3.107500076E-2
1.936284275E0,-4.001250118E-2,-2.034999989E-2,1.512499992E-2
1.938791123E0,6.324999966E-3,5.224999972E-3,-6.874999963E-3
1.941297204E0,4.551250115E-2,3.093750030E-2,-2.516249940E-2
1.943804048E0,6.379999965E-2,4.317500070E-2,-3.739999980E-2
1.946311663E0,5.527500063E-2,3.451250121E-2,-3.121249937E-2
1.948818511E0,2.474999987E-2,1.141249947E-2,-1.539999992E-2
1.951324665E0,-1.319999993E-2,-1.429999992E-2,1.031249948E-2
1.953831432E0,-4.372499883E-2,-3.258749843E-2,2.983750030E-2
1.956339111E0,-5.348749831E-2,-3.753750026E-2,3.712499887E-2
1.958845882E0,-3.396249935E-2,-2.034999989E-2,2.859999985E-2
1.961351959E0,3.987499978E-3,-2.062499989E-3,5.362499971E-3
1.963858803E0,4.303750023E-2,1.746249944E-2,-1.787500083E-2
1.966366433E0,5.884999782E-2,3.327500075E-2,-3.616249934E-2
1.968873281E0,4.427500069E-2,3.327500075E-2,-3.739999980E-2
1.971379358E0,7.562499959E-3,1.746249944E-2,-2.268750034E-2
1.973886130E0,-3.148749843E-2,-5.774999969E-3,5.499999970E-4
1.976393899E0,-5.953750014E-2,-2.777500078E-2,2.736249939E-2
1.978900593E0,-6.448750198E-2,-4.124999791E-2,4.083750024E-2
1.981406747E0,-4.248749837E-2,-3.629999980E-2,3.588749841E-2
1.983913591E0,2.749999985E-4,-2.158750035E-2,1.759999990E-2
1.986421207E0,4.551250115E-2,2.749999985E-3,-4.399999976E-3
1.988928055E0,7.603749633E-2,3.093750030E-2,-2.639999986E-2
1.991434132E0,7.603749633E-2,5.046249926E-2,-3.616249934E-2
1.993940976E0,5.156249925E-2,4.317500070E-2,-3.121249937E-2
1.996448591E0,8.799999952E-3,1.993750036E-2,-1.539999992E-2
1.998955416E0,-3.643750027E-2,-1.306249946E-2,7.837500423E-3
2.001461493E0,-6.696250290E-2,-4.124999791E-2,2.488750033E-2
2.003968279E0,-7.548750192E-2,-4.482499883E-2,2.983750030E-2
2.006475971E0,-5.472499877E-2,-3.258749843E-2,2.254999988E-2
2.008982790E0,-1.196249947E-2,-5.774999969E-3,5.362499971E-3
2.011488636E0,2.956249937E-2,1.746249944E-2,-1.292499993E-2
2.013995605E0,5.527500063E-2,3.698749840E-2,-2.763750032E-2
2.016503298E0,5.761250108E-2,3.451250121E-2,-2.763750032E-2
2.019010146E0,3.932499886E-2,1.374999993E-2,-1.416249946E-2
2.021516223E0,6.324999966E-3,-8.249999955E-3,6.599999964E-3
2.024022990E0,-2.777500078E-2,-2.653750032E-2,2.859999985E-2
2.026530682E0,-4.743750021E-2,-3.382499889E-2,3.464999795E-2
2.029037454E0,-3.643750027E-2,-2.034999989E-2,2.612499893E-2
2.031543607E0,-7.012499962E-3,-2.062499989E-3,6.599999964E-3
2.034050375E0,3.079999983E-2,1.498750038E-2,-1.663750038E-2
2.036558067E0,4.908749834E-2,3.327500075E-2,-3.244999796E-2
2.039064819E0,4.675000161E-2,3.451250121E-2,-3.863750026E-2
2.041570973E0,1.979999989E-2,1.993750036E-2,-2.639999986E-2
2.044077740E0,-1.801249944E-2,4.124999978E-4,-3.162499983E-3
2.046585428E0,-5.101250112E-2,-2.034999989E-2,2.254999988E-2
2.049092199E0,-6.572499871E-2,-4.235000163E-2,4.207500070E-2
2.051598084E0,-5.348749831E-2,-4.235000163E-2,4.083750024E-2
2.054105082E0,-1.691249944E-2,-2.653750032E-2,2.488750033E-2
2.056612788E0,2.956249937E-2,-5.774999969E-3,5.499999970E-4
2.059119560E0,7.108750194E-2,2.598750032E-2,-2.268750034E-2
2.061625483E0,8.332499862E-2,5.403750017E-2,-3.987500072E-2
2.064132481E0,6.379999965E-2,5.293750018E-2,-3.987500072E-2
2.066639942E0,2.227500081E-2,2.722499892E-2,-2.392499894E-2
2.069146944E0,-2.667500079E-2,-4.537499975E-3,-1.924999990E-3
2.071652867E0,-6.324999779E-2,-4.001250118E-2,2.488750033E-2
2.074159865E0,-7.796250284E-2,-5.335000157E-2,3.836249933E-2
2.076667327E0,-6.324999779E-2,-4.358749837E-2,3.464999795E-2
2.079174329E0,-2.901249938E-2,-2.034999989E-2,2.131249942E-2
2.081680286E0,1.732499897E-2,3.987499978E-3,5.499999970E-4
2.084187053E0,5.403750017E-2,2.969999984E-2,-1.911249943E-2
2.086694976E0,6.861250103E-2,4.193750024E-2,-3.011249937E-2
2.089201789E0,5.279999971E-2,2.969999984E-2,-2.887500077E-2
2.091707713E0,2.103750035E-2,5.224999972E-3,-1.539999992E-2
2.094214466E0,-1.801249944E-2,-1.429999992E-2,7.837500423E-3
2.096722158E0,-4.496249929E-2,-2.406249940E-2,2.364999987E-2
2.099229160E0,-5.101250112E-2,-2.529999986E-2,2.488750033E-2
2.101735083E0,-2.901249938E-2,-1.182499994E-2,1.636249945E-2
2.104241850E0,6.324999966E-3,1.512499992E-3,-1.924999990E-3
2.106749543E0,3.684999794E-2,1.251249947E-2,-1.911249943E-2
2.109256314E0,4.675000161E-2,2.474999987E-2,-2.887500077E-2
2.111762468E0,3.451250121E-2,2.227500081E-2,-2.516249940E-2
2.114269235E0,2.749999985E-3,5.224999972E-3,-5.637499969E-3
2.116776931E0,-3.519999981E-2,-1.429999992E-2,1.636249945E-2
2.119283703E0,-5.953750014E-2,-3.258749843E-2,3.588749841E-2
2.121789856E0,-5.953750014E-2,-4.235000163E-2,3.712499887E-2
2.124296624E0,-3.148749843E-2,-2.901249938E-2,2.612499893E-2
2.126804316E0,1.498750038E-2,-5.774999969E-3,-6.874999963E-4
2.129311328E0,5.884999782E-2,2.474999987E-2,-2.392499894E-2
2.131817251E0,8.208750188E-2,4.675000161E-2,-3.863750026E-2
2.134324018E0,7.232499868E-2,5.403750017E-2,-4.221250117E-2
2.136831692E0,3.932499886E-2,3.575000167E-2,-2.763750032E-2
2.139338463E0,-8.249999955E-3,3.987499978E-3,-5.637499969E-3
2.141844617E0,-4.867500067E-2,-2.901249938E-2,2.131249942E-2
2.144351384E0,-7.548750192E-2,-5.458749831E-2,3.959999979E-2
2.146859076E0,-7.424999774E-2,-5.101250112E-2,3.836249933E-2
2.149365848E0,-4.867500067E-2,-3.135000169E-2,2.736249939E-2
2.151872001E0,-9.624999948E-4,-3.299999982E-3,4.124999978E-3
2.154378769E0,4.675000161E-2,2.598750032E-2,-1.911249943E-2
2.156886461E0,6.861250103E-2,4.675000161E-2,-3.739999980E-2
2.159393223E0,6.379999965E-2,4.069999978E-2,-3.987500072E-2
2.161899377E0,3.327500075E-2,1.869999990E-2,-2.516249940E-2
2.164406153E0,-7.012499962E-3,-4.537499975E-3,-6.874999963E-4
2.166913846E0,-3.767500073E-2,-2.653750032E-2,2.488750033E-2
2.169420593E0,-5.101250112E-2,-3.382499889E-2,3.712499887E-2
2.171926670E0,-3.767500073E-2,-2.529999986E-2,2.983750030E-2
2.174433514E0,-5.912499968E-3,-1.182499994E-2,1.388750039E-2
2.176941139E0,3.451250121E-2,6.462499965E-3,-9.212499484E-3
2.179447987E0,5.527500063E-2,2.722499892E-2,-2.516249940E-2
2.181954064E0,4.675000161E-2,3.327500075E-2,-3.368749842E-2
2.184460909E0,1.608750038E-2,2.117500082E-2,-2.392499894E-2
2.186968524E0,-2.543750033E-2,4.124999978E-4,-4.399999976E-3
2.189475372E0,-5.719999969E-2,-2.406249940E-2,1.636249945E-2
2.191981449E0,-6.819999963E-2,-3.506249934E-2,3.231250122E-2
2.194488293E0,-5.101250112E-2,-3.024999984E-2,2.612499893E-2
2.196995909E0,-9.487500414E-3,-1.553750038E-2,1.388750039E-2
2.199502752E0,3.684999794E-2,6.462499965E-3,-8.112499490E-3
2.202008829E0,7.356250286E-2,2.969999984E-2,-2.392499894E-2
2.204515611E0,7.727500051E-2,4.427500069E-2,-3.492499888E-2
2.207023303E0,5.651250109E-2,3.698749840E-2,-2.887500077E-2
2.209530165E0,1.374999993E-2,1.141249947E-2,-6.874999963E-3
2.212036242E0,-3.024999984E-2,-1.429999992E-2,1.264999993E-2
2.214543024E0,-6.696250290E-2,-4.124999791E-2,3.341250122E-2
2.217050716E0,-7.796250284E-2,-4.977500066E-2,3.588749841E-2
2.219557564E0,-5.843750015E-2,-3.753750026E-2,2.364999987E-2
2.222063641E0,-2.048750035E-2,-1.306249946E-2,5.362499971E-3
2.224570408E0,2.956249937E-2,1.746249944E-2,-1.663750038E-2
2.227078100E0,6.008749828E-2,4.427500069E-2,-3.492499888E-2
2.229584949E0,6.627500057E-2,4.922499880E-2,-4.111250117E-2
2.232091026E0,4.551250115E-2,2.846249938E-2,-2.887500077E-2
2.234597793E0,1.127499994E-2,4.124999978E-4,-6.874999963E-3
2.237105485E0,-2.777500078E-2,-2.777500078E-2,2.007500082E-2
2.239612261E0,-5.224999785E-2,-4.124999791E-2,3.712499887E-2
2.242118415E0,-4.743750021E-2,-3.258749843E-2,3.464999795E-2
2.244625158E0,-2.048750035E-2,-1.182499994E-2,2.007500082E-2
2.247132851E0,1.732499897E-2,6.462499965E-3,-4.399999976E-3
2.249639622E0,4.784999788E-2,2.474999987E-2,-2.639999986E-2
2.252145545E0,5.527500063E-2,3.698749840E-2,-3.987500072E-2
2.254652538E0,3.079999983E-2,2.474999987E-2,-3.492499888E-2
2.257160230E0,-8.249999955E-3,6.462499965E-3,-1.416249946E-2
2.259667002E0,-4.619999975E-2,-1.553750038E-2,1.154999994E-2
2.262172925E0,-6.696250290E-2,-3.258749843E-2,3.464999795E-2
2.264679923E0,-6.201250106E-2,-4.235000163E-2,3.959999979E-2
2.267187615E0,-2.901249938E-2,-3.024999984E-2,2.983750030E-2
2.269694463E0,1.856249943E-2,-1.058750041E-2,7.837500423E-3
2.272200309E0,6.503749639E-2,1.498750038E-2,-1.416249946E-2
2.274707307E0,8.703749627E-2,4.069999978E-2,-3.368749842E-2
2.277214769E0,7.479999959E-2,5.293750018E-2,-3.863750026E-2
2.279721762E0,3.808749840E-2,3.575000167E-2,-2.516249940E-2
2.282227685E0,-1.319999993E-2,5.224999972E-3,-5.637499969E-3
2.284734683E0,-5.596249923E-2,-2.901249938E-2,1.759999990E-2
2.287242145E0,-8.043749630E-2,-5.101250112E-2,2.983750030E-2
2.289749147E0,-7.424999774E-2,-4.482499883E-2,2.736249939E-2
2.292255070E0,-4.001250118E-2,-2.282499894E-2,1.636249945E-2
2.294762053E0,5.087499972E-3,3.987499978E-3,-3.162499983E-3
2.297269745E0,4.551250115E-2,2.722499892E-2,-1.787500083E-2
2.299776516E0,6.379999965E-2,3.946249932E-2,-3.011249937E-2
2.302282439E0,5.651250109E-2,2.846249938E-2,-2.516249940E-2
2.304789437E0,2.832499892E-2,5.224999972E-3,-5.637499969E-3
2.307297130E0,-1.072499994E-2,-1.801249944E-2,1.264999993E-2
2.309803901E0,-4.001250118E-2,-3.135000169E-2,3.107500076E-2
2.312309824E0,-4.743750021E-2,-2.901249938E-2,3.231250122E-2
2.314816591E0,-2.777500078E-2,-1.429999992E-2,1.759999990E-2
2.317324283E0,8.799999952E-3,5.224999972E-3,-1.924999990E-3
2.319831084E0,4.056249931E-2,1.993750036E-2,-2.516249940E-2
2.322337238E0,5.279999971E-2,3.451250121E-2,-3.739999980E-2
2.324844019E0,4.056249931E-2,3.217500076E-2,-3.739999980E-2
2.327351711E0,5.087499972E-3,1.251249947E-2,-1.911249943E-2
2.329858713E0,-3.519999981E-2,-9.487500414E-3,6.599999964E-3
2.332364627E0,-6.448750198E-2,-3.506249934E-2,3.464999795E-2
2.334871625E0,-7.177499682E-2,-4.729999974E-2,4.564999789E-2
2.337379087E0,-4.743750021E-2,-4.124999791E-2,3.712499887E-2
2.339886079E0,1.512499992E-3,-1.677500084E-2,1.636249945E-2
2.342392002E0,5.279999971E-2,1.141249947E-2,-1.168750040E-2
2.344898769E0,8.827500045E-2,4.427500069E-2,-3.244999796E-2
2.347406461E0,8.456250280E-2,5.651250109E-2,-4.468749836E-2
2.349913463E0,4.908749834E-2,4.193750024E-2,-3.492499888E-2
2.352419386E0,-3.437499981E-3,1.251249947E-2,-1.292499993E-2
2.354926154E0,-4.867500067E-2,-2.034999989E-2,1.264999993E-2
2.357433846E0,-7.672499865E-2,-4.977500066E-2,3.464999795E-2
2.359940848E0,-7.548750192E-2,-5.101250112E-2,3.712499887E-2
2.362446790E0,-4.743750021E-2,-3.258749843E-2,2.736249939E-2
2.364953557E0,2.749999985E-4,-1.058750041E-2,1.154999994E-2
2.367461236E0,4.427500069E-2,1.869999990E-2,-1.168750040E-2
2.369968007E0,6.861250103E-2,3.946249932E-2,-2.887500077E-2
2.372474166E0,6.379999965E-2,3.946249932E-2,-3.368749842E-2
2.374980933E0,3.575000167E-2,1.746249944E-2,-2.144999988E-2
2.377488625E0,-7.012499962E-3,-3.299999982E-3,-1.924999990E-3
2.379995382E0,-4.372499883E-2,-2.282499894E-2,2.007500082E-2
2.382501458E0,-5.719999969E-2,-2.777500078E-2,2.859999985E-2
2.385008318E0,-3.767500073E-2,-1.677500084E-2,2.131249942E-2
2.387516010E0,-2.199999988E-3,-4.537499975E-3,5.362499971E-3
2.390022781E0,3.575000167E-2,1.141249947E-2,-1.539999992E-2
2.392528858E0,5.403750017E-2,2.474999987E-2,-2.887500077E-2
2.395035702E0,4.784999788E-2,2.969999984E-2,-3.011249937E-2
2.397543395E0,1.374999993E-2,1.141249947E-2,-1.539999992E-2
2.400050166E0,-2.667500079E-2,-9.487500414E-3,1.031249948E-2
2.402556243E0,-5.843750015E-2,-3.024999984E-2,3.107500076E-2
2.405063087E0,-6.572499871E-2,-4.482499883E-2,4.441250116E-2
2.407570702E0,-4.372499883E-2,-3.506249934E-2,3.341250122E-2
2.410077550E0,2.749999985E-3,-1.306249946E-2,9.074999951E-3
2.412583631E0,5.032499880E-2,1.374999993E-2,-1.539999992E-2
2.415090476E0,7.603749633E-2,3.946249932E-2,-3.739999980E-2
2.417598091E0,7.479999959E-2,5.527500063E-2,-4.344999790E-2
2.420105104E0,4.551250115E-2,4.303750023E-2,-3.616249934E-2
2.422612187E0,2.749999985E-3,1.498750038E-2,-1.044999994E-2
2.425117848E0,-4.248749837E-2,-2.048750035E-2,1.512499992E-2
2.427625462E0,-7.301250100E-2,-4.977500066E-2,3.712499887E-2
2.430132334E0,-7.548750192E-2,-5.706249923E-2,4.207500070E-2
2.432638411E0,-4.977500066E-2,-3.753750026E-2,2.859999985E-2
2.435145255E0,-2.199999988E-3,-9.487500414E-3,9.074999951E-3
2.437652870E0,4.427500069E-2,1.993750036E-2,-1.539999992E-2
2.440159742E0,6.751249731E-2,4.675000161E-2,-3.368749842E-2
2.442665819E0,5.775000155E-2,4.551250115E-2,-3.739999980E-2
2.445172663E0,2.956249937E-2,1.869999990E-2,-2.392499894E-2
2.447680298E0,-1.072499994E-2,-8.249999955E-3,-6.874999963E-4
2.450187146E0,-4.496249929E-2,-3.024999984E-2,2.241249941E-2
2.452693214E0,-5.719999969E-2,-3.629999980E-2,3.588749841E-2
2.455200058E0,-3.643750027E-2,-2.158750035E-2,2.983750030E-2
2.457707687E0,3.987499978E-3,-8.249999955E-3,1.154999994E-2
2.460214536E0,4.427500069E-2,1.127499994E-2,-1.044999994E-2
2.462720613E0,6.132499874E-2,2.846249938E-2,-2.887500077E-2
2.465227457E0,4.798749834E-2,3.093750030E-2,-3.368749842E-2
2.467735072E0,1.251249947E-2,1.622499898E-2,-2.268750034E-2
2.470241920E0,-3.148749843E-2,-5.774999969E-3,1.649999991E-3
2.472747997E0,-6.572499871E-2,-2.529999986E-2,2.488750033E-2
2.475254764E0,-7.301250100E-2,-3.629999980E-2,3.588749841E-2
2.477762457E0,-4.853750020E-2,-2.901249938E-2,2.736249939E-2
2.480269305E0,-2.199999988E-3,-1.429999992E-2,6.599999964E-3
2.482775382E0,4.675000161E-2,6.462499965E-3,-1.168750040E-2
2.485282149E0,7.479999959E-2,3.093750030E-2,-3.011249937E-2
2.487789841E0,7.479999959E-2,4.798749834E-2,-3.368749842E-2
2.490296579E0,4.908749834E-2,3.575000167E-2,-2.392499894E-2
2.492802732E0,6.324999966E-3,7.699999958E-3,-1.924999990E-3
2.495309500E0,-3.753750026E-2,-2.158750035E-2,2.131249942E-2
2.497817202E0,-6.929999590E-2,-4.853750020E-2,3.464999795E-2
2.500324050E0,-6.819999963E-2,-4.977500066E-2,3.588749841E-2
2.502830127E0,-4.001250118E-2,-3.024999984E-2,1.759999990E-2
2.505336894E0,5.224999972E-3,1.512499992E-3,-3.162499983E-3
2.507844587E0,4.427500069E-2,3.093750030E-2,-2.392499894E-2
2.510351358E0,5.898749828E-2,5.046249926E-2,-3.739999980E-2
2.512857512E0,5.032499880E-2,4.069999978E-2,-3.492499888E-2
2.515364279E0,2.227500081E-2,1.017499994E-2,-1.787500083E-2
2.517871971E0,-1.443750039E-2,-1.801249944E-2,7.837500423E-3
2.520378762E0,-4.619999975E-2,-4.001250118E-2,3.107500076E-2
2.522884685E0,-5.472499877E-2,-3.753750026E-2,3.836249933E-2
2.525391683E0,-3.024999984E-2,-1.924999990E-2,2.612499893E-2
2.527899366E0,1.374999993E-2,2.749999985E-3,5.362499971E-3
2.530406137E0,5.156249925E-2,1.993750036E-2,-1.663750038E-2
2.532912060E0,6.256250292E-2,3.451250121E-2,-3.492499888E-2
2.535419058E0,4.056249931E-2,2.846249938E-2,-3.616249934E-2
2.537926755E0,2.749999985E-4,6.462499965E-3,-2.021249942E-2
2.540433526E0,-4.372499883E-2,-1.429999992E-2,4.124999978E-3
2.542939449E0,-7.424999774E-2,-2.901249938E-2,2.983750030E-2
2.545446447E0,-7.177499682E-2,-3.506249934E-2,3.959999979E-2
2.547953923E0,-3.643750027E-2,-2.777500078E-2,2.983750030E-2
2.550460925E0,1.856249943E-2,-1.182499994E-2,7.837500423E-3
2.552966849E0,6.627500057E-2,3.987499978E-3,-1.416249946E-2
2.555473847E0,8.332499862E-2,3.217500076E-2,-3.011249937E-2
2.557981308E0,7.232499868E-2,4.798749834E-2,-3.616249934E-2
2.560488310E0,3.575000167E-2,3.946249932E-2,-2.144999988E-2
2.562994233E0,-1.196249947E-2,1.017499994E-2,-1.924999990E-3
2.565501000E0,-5.472499877E-2,-2.282499894E-2,2.131249942E-2
2.568008693E0,-7.301250100E-2,-4.729999974E-2,2.983750030E-2
2.570515695E0,-5.829999968E-2,-4.606249928E-2,2.364999987E-2
2.573021618E0,-2.296249941E-2,-2.282499894E-2,6.599999964E-3
2.575528361E0,1.622499898E-2,7.699999958E-3,-9.349999949E-3
2.578036053E0,4.303750023E-2,3.575000167E-2,-2.144999988E-2
2.580543055E0,4.551250115E-2,4.427500069E-2,-3.121249937E-2
2.583048978E0,3.451250121E-2,2.117500082E-2,-2.021249942E-2
2.585555746E0,6.324999966E-3,-1.058750041E-2,-6.874999963E-4
2.588063438E0,-2.419999987E-2,-2.901249938E-2,2.131249942E-2
2.590570223E0,-4.248749837E-2,-3.629999980E-2,3.341250122E-2
2.593076377E0,-3.272499889E-2,-2.158750035E-2,2.859999985E-2
2.595583144E0,5.224999972E-3,4.124999978E-4,1.154999994E-2
2.598090847E0,4.427500069E-2,1.993750036E-2,-1.416249946E-2
2.600597618E0,6.132499874E-2,3.217500076E-2,-3.121249937E-2
2.603103772E0,5.156249925E-2,3.093750030E-2,-4.111250117E-2
2.605610539E0,1.732499897E-2,1.127499994E-2,-3.011249937E-2
2.608118231E0,-2.653750032E-2,-7.012499962E-3,-4.399999976E-3
2.610625233E0,-6.448750198E-2,-2.158750035E-2,2.131249942E-2
2.613131079E0,-7.796250284E-2,-3.629999980E-2,3.959999979E-2
2.615637924E0,-6.077500060E-2,-3.506249934E-2,3.836249933E-2
2.618145616E0,-1.319999993E-2,-2.282499894E-2,1.759999990E-2
2.620652618E0,3.932499886E-2,-7.012499962E-3,-6.874999963E-3
2.623158464E0,7.479999959E-2,2.227500081E-2,-2.763750032E-2
2.625665308E0,7.851249725E-2,4.922499880E-2,-3.616249934E-2
2.628172986E0,5.279999971E-2,4.798749834E-2,-3.011249937E-2
2.630679988E0,1.003750041E-2,1.869999990E-2,-8.112499490E-3
2.633185834E0,-3.396249935E-2,-1.182499994E-2,1.388750039E-2
2.635692688E0,-6.201250106E-2,-4.001250118E-2,2.859999985E-2
2.638200303E0,-5.829999968E-2,-4.977500066E-2,2.983750030E-2
2.640707136E0,-2.653750032E-2,-3.382499889E-2,1.759999990E-2
2.643213290E0,1.003750041E-2,-4.537499975E-3,1.649999991E-3
2.645720058E0,3.451250121E-2,2.227500081E-2,-1.539999992E-2
2.648227750E0,3.808749840E-2,4.193750024E-2,-2.639999986E-2
2.650734521E0,2.832499892E-2,3.217500076E-2,-2.639999986E-2
2.653240598E0,3.987499978E-3,1.512499992E-3,-1.168750040E-2
2.655747442E0,-2.419999987E-2,-2.282499894E-2,9.074999951E-3
2.658255134E0,-4.372499883E-2,-3.135000169E-2,2.488750033E-2
2.660761906E0,-3.753750026E-2,-2.158750035E-2,2.612499893E-2
2.663267983E0,-3.437499981E-3,-7.012499962E-3,1.388750039E-2
2.665774827E0,3.698749840E-2,1.374999993E-2,-6.874999963E-3
2.668282519E0,5.651250109E-2,2.474999987E-2,-2.268750034E-2
2.670789290E0,5.156249925E-2,2.969999984E-2,-3.244999796E-2
2.673295367E0,2.598750032E-2,1.374999993E-2,-2.392499894E-2
2.675802211E0,-1.443750039E-2,-4.537499975E-3,-3.162499983E-3
2.678309914E0,-5.348749831E-2,-2.406249940E-2,2.131249942E-2
2.680816685E0,-7.424999774E-2,-2.901249938E-2,3.588749841E-2
2.683322762E0,-5.953750014E-2,-2.901249938E-2,3.107500076E-2
2.685829601E0,-1.319999993E-2,-2.282499894E-2,1.512499992E-2
2.688337216E0,3.575000167E-2,-8.249999955E-4,-9.349999949E-3
2.690844051E0,6.503749639E-2,2.227500081E-2,-2.763750032E-2
2.693350128E0,6.503749639E-2,4.427500069E-2,-3.739999980E-2
2.695856967E0,4.179999977E-2,3.822499886E-2,-2.887500077E-2
2.698364582E0,7.562499959E-3,1.746249944E-2,-9.349999949E-3
2.700871430E0,-2.901249938E-2,-8.249999955E-3,1.512499992E-2
2.703377507E0,-5.101250112E-2,-3.506249934E-2,3.107500076E-2
2.705884274E0,-4.496249929E-2,-4.358749837E-2,3.231250122E-2
2.708391967E0,-1.801249944E-2,-3.135000169E-2,1.759999990E-2
2.710898815E0,1.374999993E-2,-7.012499962E-3,-1.924999990E-3
2.713404892E0,2.832499892E-2,2.351249941E-2,-1.787500083E-2
2.715911659E0,2.956249937E-2,4.551250115E-2,-2.639999986E-2
2.718419351E0,1.374999993E-2,3.093750030E-2,-2.392499894E-2
2.720926185E0,-7.012499962E-3,-8.249999955E-4,-9.349999949E-3
2.723432261E0,-3.396249935E-2,-2.777500078E-2,1.154999994E-2
2.725939029E0,-4.496249929E-2,-3.629999980E-2,2.736249939E-2
2.728446741E0,-2.777500078E-2,-2.777500078E-2,2.859999985E-2
2.730953512E0,1.374999993E-2,-5.774999969E-3,1.636249945E-2
2.733459661E0,5.156249925E-2,1.746249944E-2,-1.924999990E-3
2.735966428E0,6.503749639E-2,3.327500075E-2,-2.268750034E-2
2.738474121E0,5.527500063E-2,3.327500075E-2,-3.121249937E-2
2.740980892E0,2.227500081E-2,1.374999993E-2,-2.639999986E-2
2.743487046E0,-2.419999987E-2,-7.012499962E-3,-4.399999976E-3
2.745993813E0,-6.572499871E-2,-2.158750035E-2,2.007500082E-2
2.748501505E0,-7.672499865E-2,-2.777500078E-2,3.341250122E-2
2.751008277E0,-4.977500066E-2,-2.653750032E-2,2.983750030E-2
2.753514430E0,-2.199999988E-3,-1.677500084E-2,9.074999951E-3
2.756021198E0,3.932499886E-2,-4.537499975E-3,-1.168750040E-2
2.758528890E0,5.403750017E-2,1.746249944E-2,-2.763750032E-2
2.761035661E0,4.551250115E-2,3.327500075E-2,-3.011249937E-2
2.763541815E0,2.351249941E-2,3.093750030E-2,-1.663750038E-2
2.766048582E0,-4.674999975E-3,1.374999993E-2,4.124999978E-3
2.768556265E0,-2.653750032E-2,-1.182499994E-2,2.488750033E-2
2.771063036E0,-3.272499889E-2,-3.135000169E-2,2.983750030E-2
2.773569195E0,-1.443750039E-2,-3.877500072E-2,2.241249941E-2
2.776075962E0,1.622499898E-2,-1.801249944E-2,4.124999978E-3
2.778583654E0,3.327500075E-2,8.937500417E-3,-1.416249946E-2
2.781090434E0,3.203750029E-2,4.193750024E-2,-2.639999986E-2
2.783596358E0,1.622499898E-2,4.675000161E-2,-3.121249937E-2
2.786103356E0,-7.012499962E-3,1.746249944E-2,-2.021249942E-2
2.788610817E0,-3.643750027E-2,-1.801249944E-2,5.499999970E-4
2.791117819E0,-5.596249923E-2,-4.001250118E-2,2.364999987E-2
2.793623973E0,-5.348749831E-2,-4.358749837E-2,3.464999795E-2
2.796130740E0,-1.924999990E-2,-2.777500078E-2,2.736249939E-2
2.798638202E0,2.956249937E-2,3.987499978E-3,9.074999951E-3
2.801145204E0,6.256250292E-2,2.474999987E-2,-1.539999992E-2
2.803651127E0,6.751249731E-2,4.303750023E-2,-3.121249937E-2
2.806158125E0,4.908749834E-2,3.575000167E-2,-3.368749842E-2
2.808665586E0,1.374999993E-2,8.937500417E-3,-2.144999988E-2
2.811172588E0,-3.272499889E-2,-1.306249946E-2,2.887499984E-3
2.813678511E0,-6.929999590E-2,-2.653750032E-2,2.488750033E-2
2.816185279E0,-6.696250290E-2,-3.135000169E-2,3.341250122E-2
2.818693183E0,-2.653750032E-2,-2.653750032E-2,2.364999987E-2
2.821199954E0,2.474999987E-2,-1.429999992E-2,2.887499984E-3
2.823705896E0,4.908749834E-2,5.224999972E-3,-1.416249946E-2
2.826212894E0,4.551250115E-2,2.722499892E-2,-2.763750032E-2
2.828720586E0,2.832499892E-2,3.093750030E-2,-2.763750032E-2
2.831227358E0,2.749999985E-4,1.869999990E-2,-1.292499993E-2
2.833733281E0,-3.024999984E-2,4.124999978E-4,1.031249948E-2
2.836240279E0,-4.729999974E-2,-1.924999990E-2,2.488750033E-2
2.838747740E0,-2.777500078E-2,-3.258749843E-2,2.736249939E-2
2.841254742E0,1.003750041E-2,-2.653750032E-2,1.264999993E-2
2.843760665E0,3.808749840E-2,-5.774999969E-3,-9.349999949E-3
2.846267663E0,4.179999977E-2,2.227500081E-2,-2.268750034E-2
2.848775125E0,2.956249937E-2,4.303750023E-2,-3.011249937E-2
2.851282127E0,7.562499959E-3,3.093750030E-2,-2.144999988E-2
2.853788050E0,-1.924999990E-2,2.749999985E-3,-1.924999990E-3
2.856294793E0,-4.853750020E-2,-2.406249940E-2,1.759999990E-2
2.858802486E0,-5.719999969E-2,-4.124999791E-2,3.107500076E-2
2.861309488E0,-3.024999984E-2,-4.235000163E-2,2.736249939E-2
2.863815440E0,1.374999993E-2,-1.677500084E-2,1.512499992E-2
2.866322207E0,5.403750017E-2,1.622499898E-2,-6.874999963E-3
2.868829904E0,6.256250292E-2,4.193750024E-2,-2.516249940E-2
2.871336906E0,4.908749834E-2,4.798749834E-2,-3.492499888E-2
2.873842829E0,2.227500081E-2,1.993750036E-2,-2.763750032E-2
2.876349606E0,-1.801249944E-2,-8.249999955E-3,-4.399999976E-3
2.878857298E0,-5.719999969E-2,-2.158750035E-2,1.636249945E-2
2.881364069E0,-6.201250106E-2,-2.777500078E-2,3.231250122E-2
2.883870204E0,-3.148749843E-2,-2.653750032E-2,2.736249939E-2
2.886376971E0,1.498750038E-2,-1.429999992E-2,1.154999994E-2
2.888884663E0,4.056249931E-2,-8.249999955E-4,-9.349999949E-3
2.891391435E0,3.451250121E-2,1.993750036E-2,-2.392499894E-2
2.893897589E0,1.979999989E-2,2.474999987E-2,-2.639999986E-2
2.896404356E0,2.749999985E-4,1.622499898E-2,-1.663750038E-2
2.898912048E0,-2.296249941E-2,5.224999972E-3,6.599999964E-3
2.901418819E0,-4.248749837E-2,-1.182499994E-2,2.488750033E-2
2.903924896E0,-2.777500078E-2,-2.777500078E-2,2.736249939E-2
2.906431740E0,8.799999952E-3,-3.506249934E-2,2.007500082E-2
2.908939428E0,4.179999977E-2,-1.429999992E-2,-6.874999963E-4
2.911446199E0,4.303750023E-2,1.498750038E-2,-1.787500083E-2
2.913952276E0,3.203750029E-2,4.427500069E-2,-2.763750032E-2
2.916459120E0,1.498750038E-2,4.193750024E-2,-2.516249940E-2
2.918966827E0,-9.487500414E-3,1.127499994E-2,-1.168750040E-2
2.921473599E0,-4.124999791E-2,-1.801249944E-2,6.599999964E-3
2.923979753E0,-6.077500060E-2,-3.629999980E-2,2.364999987E-2
2.926486520E0,-4.496249929E-2,-4.235000163E-2,2.736249939E-2
2.928994212E0,-2.199999988E-3,-2.406249940E-2,1.759999990E-2
2.931500983E0,3.203750029E-2,3.987499978E-3,-6.874999963E-4
2.934007137E0,4.179999977E-2,2.598750032E-2,-1.539999992E-2
2.936513904E0,3.327500075E-2,3.327500075E-2,-2.516249940E-2
2.939021597E0,2.227500081E-2,1.498750038E-2,-2.144999988E-2
2.941528368E0,-5.774999969E-3,-2.062499989E-3,-3.162499983E-3
2.944034425E0,-3.272499889E-2,-1.058750041E-2,1.264999993E-2
2.946541269E0,-3.396249935E-2,-9.487500414E-3,2.488750033E-2
2.949048884E0,-3.437499981E-3,-1.182499994E-2,1.759999990E-2
2.951555700E0,3.079999983E-2,-1.182499994E-2,1.649999991E-3
2.954061776E0,3.932499886E-2,2.749999985E-3,-1.539999992E-2
2.956568640E0,1.979999989E-2,1.746249944E-2,-2.763750032E-2
2.959076332E0,-9.624999948E-4,1.869999990E-2,-2.268750034E-2
2.961583103E0,-2.172499895E-2,6.462499965E-3,-5.637499969E-3
2.964089180E0,-4.001250118E-2,-4.537499975E-3,1.512499992E-2
2.966596024E0,-4.743750021E-2,-1.677500084E-2,2.736249939E-2
2.969103717E0,-2.419999987E-2,-3.024999984E-2,2.736249939E-2
2.971610488E0,2.103750035E-2,-3.258749843E-2,1.636249945E-2
2.974116565E0,5.032499880E-2,-1.058750041E-2,-4.399999976E-3
2.976623409E0,4.551250115E-2,2.474999987E-2,-1.911249943E-2
2.979131101E0,2.227500081E-2,4.675000161E-2,-2.763750032E-2
2.981637872E0,5.087499972E-3,3.575000167E-2,-2.268750034E-2
2.984143949E0,-1.319999993E-2,7.699999958E-3,-1.044999994E-2
2.986650717E0,-4.001250118E-2,-1.801249944E-2,7.837500423E-3
2.989158433E0,-4.743750021E-2,-3.258749843E-2,2.488750033E-2
2.991665281E0,-2.172499895E-2,-3.258749843E-2,2.488750033E-2
2.994171358E0,2.227500081E-2,-1.801249944E-2,1.264999993E-2
2.996678207E0,4.303750023E-2,7.699999958E-3,-1.924999990E-3
2.999185823E0,3.203750029E-2,2.722499892E-2,-1.168750040E-2
3.001692671E0,1.498750038E-2,2.227500081E-2,-1.787500083E-2
3.004198748E0,-4.674999975E-3,1.512499992E-3,-1.168750040E-2
3.006705495E0,-3.024999984E-2,-1.058750041E-2,4.124999978E-3
3.009213187E0,-4.743750021E-2,-9.487500414E-3,1.636249945E-2
3.011720035E0,-2.901249938E-2,-5.774999969E-3,1.883750036E-2
3.014226112E0,1.856249943E-2,-3.299999982E-3,7.837500423E-3
3.016732880E0,5.032499880E-2,-8.249999955E-4,-1.044999994E-2
3.019240572E0,4.303750023E-2,6.462499965E-3,-2.144999988E-2
3.021747420E0,8.799999952E-3,1.374999993E-2,-2.516249940E-2
3.024253497E0,-1.567500085E-2,8.937500417E-3,-1.416249946E-2
3.026760264E0,-3.519999981E-2,-2.062499989E-3,7.837500423E-3
3.029267957E0,-4.743750021E-2,-5.774999969E-3,2.736249939E-2
3.031774834E0,-3.272499889E-2,-1.677500084E-2,3.464999795E-2
3.034280911E0,8.799999952E-3,-3.506249934E-2,2.364999987E-2
3.036787678E0,5.156249925E-2,-3.024999984E-2,4.124999978E-3
3.039295380E0,6.008749828E-2,3.987499978E-3,-1.787500083E-2
3.041802151E0,3.575000167E-2,4.193750024E-2,-2.887500077E-2
3.044308305E0,3.987499978E-3,5.403750017E-2,-3.121249937E-2
3.046815072E0,-1.801249944E-2,3.093750030E-2,-1.911249943E-2
3.049322749E0,-4.124999791E-2,-5.774999969E-3,5.499999970E-4
3.051829520E0,-5.472499877E-2,-3.135000169E-2,1.636249945E-2
3.054335674E0,-4.001250118E-2,-4.358749837E-2,2.983750030E-2
3.056842441E0,6.324999966E-3,-3.258749843E-2,2.364999987E-2
3.059350133E0,4.427500069E-2,-9.487500414E-3,1.031249948E-2
3.061856905E0,4.427500069E-2,1.869999990E-2,-5.637499969E-3
3.064362828E0,2.474999987E-2,3.575000167E-2,-1.663750038E-2
3.066869826E0,3.987499978E-3,1.251249947E-2,-1.787500083E-2
3.069377518E0,-1.567500085E-2,-1.182499994E-2,-8.112499490E-3
3.071884289E0,-3.767500073E-2,-1.553750038E-2,1.031249948E-2
3.074390212E0,-4.001250118E-2,-7.012499962E-3,2.007500082E-2
3.076897210E0,2.749999985E-4,-2.062499989E-3,1.759999990E-2
3.079404918E0,4.908749834E-2,2.749999985E-3,1.649999991E-3
3.081911689E0,6.132499874E-2,7.699999958E-3,-1.911249943E-2
3.084417616E0,2.832499892E-2,1.141249947E-2,-2.887500077E-2
3.086924614E0,-1.196249947E-2,1.141249947E-2,-2.516249940E-2
3.089432306E0,-3.643750027E-2,1.512499992E-3,-5.637499969E-3
3.091939040E0,-5.224999785E-2,-8.249999955E-4,1.636249945E-2
3.094445193E0,-5.224999785E-2,-8.249999955E-3,3.341250122E-2
3.096951990E0,-1.801249944E-2,-2.529999986E-2,3.341250122E-2
3.099459682E0,3.451250121E-2,-3.877500072E-2,1.883750036E-2
3.101966453E0,6.132499874E-2,-2.406249940E-2,-4.399999976E-3
3.104472607E0,4.784999788E-2,1.141249947E-2,-2.144999988E-2
3.106979374E0,1.374999993E-2,4.427500069E-2,-2.763750032E-2
3.109487067E0,-1.319999993E-2,4.427500069E-2,-2.268750034E-2
3.111993838E0,-2.901249938E-2,1.993750036E-2,-8.112499490E-3
3.114499761E0,-4.248749837E-2,-7.012499962E-3,7.837500423E-3
3.117006759E0,-3.643750027E-2,-3.135000169E-2,1.636249945E-2
3.119514221E0,3.987499978E-3,-4.001250118E-2,1.883750036E-2
3.122021252E0,4.551250115E-2,-2.158750035E-2,7.837500423E-3
3.124527175E0,5.156249925E-2,1.498750038E-2,-5.637499969E-3
3.127034173E0,2.598750032E-2,3.575000167E-2,-1.168750040E-2
3.129541865E0,-9.624999948E-4,2.474999987E-2,-1.292499993E-2
3.132048621E0,-1.924999990E-2,-1.182499994E-2,-4.399999976E-3
3.134554544E0,-4.619999975E-2,-2.901249938E-2,1.031249948E-2
3.137061542E0,-5.101250112E-2,-1.924999990E-2,2.254999988E-2
3.139569235E0,-1.924999990E-2,-7.012499962E-3,2.254999988E-2
3.142076006E0,3.932499886E-2,4.124999978E-4,5.362499971E-3
3.144581919E0,6.627500057E-2,1.017499994E-2,-1.292499993E-2
3.147088686E0,4.303750023E-2,2.117500082E-2,-3.011249937E-2
3.149596609E0,-9.624999948E-4,1.746249944E-2,-3.121249937E-2
3.152103150E0,-2.901249938E-2,1.512499992E-3,-1.787500083E-2
3.154609304E0,-4.743750021E-2,-4.537499975E-3,6.599999964E-3
3.157116071E0,-5.472499877E-2,4.124999978E-4,2.859999985E-2
3.159623763E0,-2.777500078E-2,-1.182499994E-2,3.464999795E-2
3.162130534E0,3.327500075E-2,-3.135000169E-2,2.488750033E-2
3.164636688E0,7.603749633E-2,-3.135000169E-2,5.362499971E-3
3.167143686E0,6.627500057E-2,-5.774999969E-3,-1.292499993E-2
3.169651148E0,1.732499897E-2,2.846249938E-2,-2.516249940E-2
3.172158150E0,-1.677500084E-2,3.822499886E-2,-2.268750034E-2
3.174664073E0,-3.643750027E-2,2.351249941E-2,-1.044999994E-2
3.177170840E0,-5.224999785E-2,3.987499978E-3,2.887499984E-3
3.179678532E0,-5.101250112E-2,-1.429999992E-2,1.388750039E-2
3.182185534E0,-1.072499994E-2,-3.629999980E-2,1.388750039E-2
3.184691467E0,4.179999977E-2,-3.024999984E-2,6.599999964E-3
3.187198235E0,5.775000155E-2,-8.249999955E-4,-4.399999976E-3
3.189705917E0,2.598750032E-2,2.969999984E-2,-1.416249946E-2
3.192212919E0,-7.012499962E-3,2.722499892E-2,-1.168750040E-2
3.194718837E0,-2.419999987E-2,-8.249999955E-4,-3.162499983E-3
3.197225604E0,-4.001250118E-2,-2.282499894E-2,1.388750039E-2
3.199733297E0,-4.124999791E-2,-2.282499894E-2,2.488750033E-2
3.202240299E0,-9.624999948E-4,-1.182499994E-2,2.364999987E-2
3.204746222E0,5.884999782E-2,-2.062499989E-3,1.031249948E-2
3.207252989E0,8.703749627E-2,1.498750038E-2,-1.292499993E-2
3.209760681E0,5.403750017E-2,2.846249938E-2,-3.244999796E-2
3.212267683E0,-5.774999969E-3,2.846249938E-2,-3.987500072E-2
3.214773606E0,-4.853750020E-2,5.224999972E-3,-2.639999986E-2
3.217280374E0,-7.301250100E-2,-1.306249946E-2,-1.924999990E-3
3.219788087E0,-7.672499865E-2,-1.182499994E-2,2.254999988E-2
3.222294858E0,-4.619999975E-2,-1.677500084E-2,3.836249933E-2
3.224801012E0,2.227500081E-2,-2.777500078E-2,3.107500076E-2
3.227307779E0,8.208750188E-2,-2.901249938E-2,1.154999994E-2
3.229815472E0,8.332499862E-2,-5.774999969E-3,-1.044999994E-2
3.232322238E0,3.684999794E-2,2.598750032E-2,-2.144999988E-2
3.234828315E0,-5.774999969E-3,3.451250121E-2,-2.268750034E-2
3.237335159E0,-3.024999984E-2,1.993750036E-2,-1.168750040E-2
3.239842832E0,-4.853750020E-2,7.699999958E-3,2.887499984E-3
3.242349603E0,-5.101250112E-2,-8.249999955E-3,1.154999994E-2
3.244855680E0,-1.196249947E-2,-2.653750032E-2,1.388750039E-2
3.247362524E0,4.784999788E-2,-2.777500078E-2,1.649999991E-3
3.249870216E0,6.256250292E-2,-7.012499962E-3,-8.112499490E-3
3.252376987E0,2.832499892E-2,2.598750032E-2,-1.663750038E-2
3.254883064E0,-1.443750039E-2,2.969999984E-2,-1.787500083E-2
3.257389908E0,-3.643750027E-2,5.224999972E-3,-6.874999963E-3
3.259897600E0,-5.101250112E-2,-1.801249944E-2,7.837500423E-3
3.262404372E0,-4.977500066E-2,-2.048750035E-2,2.364999987E-2
3.264910449E0,-1.319999993E-2,-2.048750035E-2,2.983750030E-2
3.267417293E0,5.527500063E-2,-1.429999992E-2,1.759999990E-2
3.269924985E0,9.432499856E-2,2.749999985E-3,-3.162499983E-3
3.272431742E0,6.379999965E-2,2.351249941E-2,-2.516249940E-2
3.274937896E0,2.749999985E-3,2.598750032E-2,-3.121249937E-2
3.277444663E0,-4.372499883E-2,1.017499994E-2,-2.516249940E-2
3.279952279E0,-6.943749636E-2,-3.299999982E-3,-6.874999963E-3
3.282459127E0,-7.548750192E-2,-5.774999969E-3,1.512499992E-2
3.284965180E0,-4.248749837E-2,-9.487500414E-3,2.612499893E-2
3.287472024E0,2.956249937E-2,-2.529999986E-2,2.254999988E-2
3.289979653E0,8.827500045E-2,-2.282499894E-2,5.362499971E-3
3.292486502E0,8.084999770E-2,-8.249999955E-4,-1.168750040E-2
3.294992579E0,3.079999983E-2,2.474999987E-2,-1.911249943E-2
3.297499423E0,-1.319999993E-2,2.722499892E-2,-1.787500083E-2
3.300007038E0,-4.001250118E-2,1.017499994E-2,-5.637499969E-3
3.302513886E0,-6.201250106E-2,4.124999978E-4,7.837500423E-3
3.305019963E0,-5.596249923E-2,-9.487500414E-3,1.759999990E-2
3.307526807E0,-3.437499981E-3,-2.406249940E-2,1.512499992E-2
3.310034500E0,5.651250109E-2,-2.529999986E-2,2.887499984E-3
3.312541271E0,6.751249731E-2,-2.062499989E-3,-1.168750040E-2
3.315047348E0,2.598750032E-2,2.351249941E-2,-2.021249942E-2
3.317554192E0,-1.924999990E-2,2.351249941E-2,-1.663750038E-2
3.320061884E0,-4.001250118E-2,-2.062499989E-3,-5.637499969E-3
3.322568656E0,-5.348749831E-2,-1.182499994E-2,9.074999951E-3
3.325074732E0,-5.101250112E-2,-9.487500414E-3,2.364999987E-2
3.327581515E0,3.987499978E-3,-1.058750041E-2,2.736249939E-2
3.330089284E0,7.479999959E-2,-1.306249946E-2,1.512499992E-2
3.332596026E0,1.005124971E-1,4.124999978E-4,-4.399999976E-3
3.335102180E0,5.884999782E-2,2.117500082E-2,-2.268750034E-2
3.337609024E0,-8.249999955E-3,2.474999987E-2,-2.887500077E-2
3.340116640E0,-5.224999785E-2,7.699999958E-3,-1.911249943E-2
3.342623488E0,-8.030000329E-2,-7.012499962E-3,-4.399999976E-3
3.345129565E0,-8.277499676E-2,-5.774999969E-3,1.636249945E-2
3.347636409E0,-4.001250118E-2,-1.429999992E-2,2.488750033E-2
3.350144024E0,3.808749840E-2,-2.653750032E-2,1.883750036E-2
3.352650872E0,8.827500045E-2,-2.048750035E-2,2.887499984E-3
3.355156949E0,6.861250103E-2,5.224999972E-3,-1.168750040E-2
3.357663765E0,1.608750038E-2,2.351249941E-2,-1.663750038E-2
3.360171380E0,-2.172499895E-2,1.746249944E-2,-1.416249946E-2
3.362678238E0,-4.248749837E-2,7.699999958E-3,5.499999970E-4
3.365184315E0,-5.224999785E-2,4.124999978E-4,1.264999993E-2
3.367691081E0,-3.148749843E-2,-8.249999955E-3,1.636249945E-2
3.370198774E0,3.079999983E-2,-2.158750035E-2,1.154999994E-2
3.372705622E0,8.084999770E-2,-1.429999992E-2,-4.399999976E-3
3.375211670E0,6.627500057E-2,1.141249947E-2,-1.911249943E-2
3.377718437E0,7.562499959E-3,2.846249938E-2,-2.392499894E-2
3.380226129E0,-4.001250118E-2,1.498750038E-2,-2.021249942E-2
3.382732977E0,-6.448750198E-2,-1.182499994E-2,-3.162499983E-3
3.385239054E0,-7.672499865E-2,-1.553750038E-2,1.264999993E-2
3.387745822E0,-5.348749831E-2,-1.306249946E-2,2.736249939E-2
3.390253514E0,1.979999989E-2,-1.553750038E-2,2.736249939E-2
3.392760362E0,9.184999764E-2,-1.553750038E-2,1.154999994E-2
3.395266439E0,9.803749621E-2,5.224999972E-3,-8.112499490E-3
3.397773206E0,4.056249931E-2,2.351249941E-2,-2.144999988E-2
3.400280883E0,-1.677500084E-2,2.117500082E-2,-2.392499894E-2
3.402787655E0,-5.101250112E-2,4.124999978E-4,-1.416249946E-2
3.405293800E0,-7.053750008E-2,-2.062499989E-3,2.887499984E-3
3.407800567E0,-6.696250290E-2,-3.299999982E-3,1.759999990E-2
3.410308259E0,-1.072499994E-2,-1.182499994E-2,2.254999988E-2
3.412815063E0,6.627500057E-2,-2.529999986E-2,1.388750039E-2
3.415321217E0,9.061250091E-2,-1.429999992E-2,-6.874999963E-3
3.417827994E0,5.156249925E-2,1.498750038E-2,-1.539999992E-2
3.420335236E0,-5.774999969E-3,2.598750032E-2,-2.021249942E-2
3.422842339E0,-4.262499884E-2,1.264999993E-2,-1.416249946E-2
3.425348381E0,-6.462500244E-2,4.124999978E-4,-6.874999963E-4
3.427855384E0,-6.696250290E-2,-3.299999982E-3,1.388750039E-2
3.430363076E0,-2.543750033E-2,-1.677500084E-2,2.007500082E-2
3.432869848E0,4.908749834E-2,-2.529999986E-2,1.154999994E-2
3.435375771E0,8.689999580E-2,-1.306249946E-2,5.499999970E-4
3.437882769E0,5.389999971E-2,1.498750038E-2,-1.292499993E-2
3.440390461E0,-2.199999988E-3,1.993750036E-2,-1.539999992E-2
3.442897309E0,-3.891250119E-2,5.224999972E-3,-9.212499484E-3
3.445403386E0,-5.843750015E-2,-5.774999969E-3,5.499999970E-4
3.447910153E0,-5.843750015E-2,-3.299999982E-3,1.636249945E-2
3.450417846E0,-1.691249944E-2,-3.299999982E-3,1.883750036E-2
3.452924694E0,5.884999782E-2,-1.182499994E-2,1.154999994E-2
3.455430540E0,1.003749967E-1,-3.299999982E-3,-1.924999990E-3
3.457937538E0,6.613750011E-2,1.264999993E-2,-1.663750038E-2
3.460445004E0,-9.624999948E-4,1.869999990E-2,-2.021249942E-2
3.462952006E0,-4.867500067E-2,3.987499978E-3,-1.663750038E-2
3.465457915E0,-7.548750192E-2,-8.249999955E-3,-3.162499983E-3
3.467964913E0,-8.043749630E-2,-4.537499975E-3,1.388750039E-2
3.470472379E0,-4.372499883E-2,-8.249999955E-3,2.488750033E-2
3.472979381E0,3.684999794E-2,-2.158750035E-2,2.254999988E-2
3.475485304E0,9.432499856E-2,-2.282499894E-2,7.837500423E-3
3.477992302E0,8.084999770E-2,2.749999985E-3,-6.874999963E-3
3.480499995E0,2.337500080E-2,2.598750032E-2,-1.787500083E-2
3.483006766E0,-1.938750036E-2,1.869999990E-2,-1.416249946E-2
3.485512689E0,-4.743750021E-2,5.224999972E-3,-7.974999957E-3
3.488019687E0,-6.215000153E-2,2.749999985E-3,4.124999978E-3
3.490527379E0,-4.496249929E-2,-8.249999955E-4,1.278750040E-2
3.493034150E0,1.979999989E-2,-1.553750038E-2,1.031249948E-2
3.495540323E0,7.961250097E-2,-1.911249943E-2,2.887499984E-3
3.498046860E0,7.108750194E-2,-2.062499989E-3,-6.874999963E-3
3.500554783E0,1.237499993E-2,1.498750038E-2,-1.044999994E-2
3.503061544E0,-3.891250119E-2,6.462499965E-3,-1.044999994E-2
3.505567467E0,-6.338749826E-2,-9.349999949E-3,-3.162499983E-3
3.508074451E0,-6.943749636E-2,-8.249999955E-3,1.031249948E-2
3.510582144E0,-4.496249929E-2,-8.249999955E-4,2.007500082E-2
3.513088915E0,2.956249937E-2,-9.349999949E-3,1.883750036E-2
3.515594862E0,9.542500228E-2,-1.058750041E-2,5.362499971E-3
3.518101860E0,9.542500228E-2,5.224999972E-3,-1.168750040E-2
3.520609552E0,2.832499892E-2,1.746249944E-2,-2.021249942E-2
3.523116323E0,-3.396249935E-2,1.374999993E-2,-2.144999988E-2
3.525622246E0,-6.572499871E-2,4.124999978E-4,-1.168750040E-2
3.528129244E0,-7.672499865E-2,-8.249999955E-4,5.362499971E-3
3.530636937E0,-5.596249923E-2,-8.249999955E-4,1.759999990E-2
3.533143708E0,1.237499993E-2,-1.553750038E-2,1.883750036E-2
3.535649631E0,8.332499862E-2,-2.406249940E-2,9.074999951E-3
3.538156629E0,9.308750182E-2,-4.537499975E-3,-4.399999976E-3
3.540664062E0,4.056249931E-2,1.746249944E-2,-1.168750040E-2
3.543171064E0,-1.567500085E-2,1.993750036E-2,-1.292499993E-2
3.545676987E0,-4.991250113E-2,5.224999972E-3,-7.974999957E-3
3.548183985E0,-7.191249728E-2,-2.062499989E-3,5.499999970E-4
3.550691471E0,-6.696250290E-2,-4.537499975E-3,1.031249948E-2
3.553198473E0,-9.624999948E-3,-1.182499994E-2,1.154999994E-2
3.555704396E0,6.737499684E-2,-1.553750038E-2,1.787499990E-3
3.558211394E0,8.689999580E-2,-8.249999955E-4,-9.212499484E-3
3.560718875E0,4.056249931E-2,1.869999990E-2,-1.292499993E-2
3.563225877E0,-1.691249944E-2,1.141249947E-2,-1.168750040E-2
3.565731800E0,-4.743750021E-2,-9.349999949E-3,-4.399999976E-3
3.568238567E0,-6.215000153E-2,-1.182499994E-2,6.599999964E-3
3.570746294E0,-5.115000159E-2,4.124999978E-4,1.759999990E-2
3.573253296E0,1.113750041E-2,-8.249999955E-4,2.254999988E-2
3.575759219E0,8.566249907E-2,-9.349999949E-3,9.074999951E-3
3.578265981E0,1.016125008E-1,-3.299999982E-3,-3.162499983E-3
3.580773673E0,4.537500069E-2,8.937500417E-3,-1.539999992E-2
3.583280689E0,-2.419999987E-2,1.264999993E-2,-2.268750034E-2
3.585786612E0,-6.819999963E-2,3.987499978E-3,-1.787500083E-2
3.588293380E0,-8.772499859E-2,2.749999985E-3,-4.399999976E-3
3.590801303E0,-7.796250284E-2,5.224999972E-3,9.074999951E-3
3.593308074E0,-2.062499896E-2,-8.249999955E-3,1.512499992E-2
3.595813997E0,6.008749828E-2,-2.777500078E-2,1.278750040E-2
3.598320764E0,9.308750182E-2,-1.911249943E-2,2.887499984E-3
3.600828457E0,6.132499874E-2,1.649999991E-3,-1.924999990E-3
3.603335228E0,8.799999952E-3,1.498750038E-2,-3.162499983E-3
3.605841382E0,-2.543750033E-2,1.141249947E-2,-1.924999990E-3
3.608348144E0,-4.991250113E-2,3.987499978E-3,5.362499971E-3
3.610855836E0,-5.362499878E-2,3.987499978E-3,6.599999964E-3
3.613362612E0,-1.196249947E-2,-5.774999969E-3,4.124999978E-3
3.615868766E0,5.389999971E-2,-1.182499994E-2,-6.874999963E-3
3.618375764E0,7.232499868E-2,4.124999978E-4,-1.539999992E-2
3.620883236E0,3.313750029E-2,2.117500082E-2,-1.787500083E-2
3.623390238E0,-2.419999987E-2,1.374999993E-2,-1.663750038E-2
3.625896175E0,-5.967500061E-2,-7.012499962E-3,-5.637499969E-3
3.628402942E0,-7.672499865E-2,-1.677500084E-2,5.362499971E-3
3.630910634E0,-6.338749826E-2,-1.182499994E-2,2.007500082E-2
3.633417636E0,-9.624999948E-4,-5.774999969E-3,2.612499893E-2
3.635923483E0,8.208750188E-2,-1.058750041E-2,1.759999990E-2
3.638430327E0,1.150875017E-1,-5.774999969E-3,5.362499971E-3
3.640938019E0,6.613750011E-2,1.141249947E-2,-7.974999957E-3
3.643445021E0,-2.199999988E-3,1.498750038E-2,-1.539999992E-2
3.645950867E0,-4.867500067E-2,2.749999985E-3,-1.663750038E-2
3.648457711E0,-7.548750192E-2,-8.249999955E-4,-9.212499484E-3
3.650965399E0,-7.796250284E-2,5.224999972E-3,-6.874999963E-4
3.653472401E0,-3.038750030E-2,1.649999991E-3,5.362499971E-3
3.655978305E0,4.908749834E-2,-1.429999992E-2,6.599999964E-3
3.658485072E0,8.332499862E-2,-1.429999992E-2,-4.399999976E-3
3.660992764E0,5.156249925E-2,2.749999985E-3,-5.637499969E-3
3.663499780E0,-2.199999988E-3,7.699999958E-3,-3.162499983E-3
3.666005703E0,-3.162499890E-2,1.649999991E-3,-1.924999990E-3
3.668512452E0,-4.991250113E-2,-3.299999982E-3,6.599999964E-3
3.671020144E0,-5.362499878E-2,1.649999991E-3,1.278750040E-2
3.673526915E0,-1.567500085E-2,-5.774999969E-3,1.388750039E-2
3.676033069E0,5.156249925E-2,-1.429999992E-2,6.599999964E-3
3.678539836E0,7.713750005E-2,-8.249999955E-3,-4.399999976E-3
3.681047529E0,4.056249931E-2,7.699999958E-3,-1.292499993E-2
3.683554300E0,-1.567500085E-2,1.374999993E-2,-1.663750038E-2
3.686060454E0,-4.867500067E-2,5.224999972E-3,-1.539999992E-2
3.688567221E0,-6.462500244E-2,-8.249999955E-4,-5.637499969E-3
3.691074904E0,-5.596249923E-2,3.987499978E-3,7.837500423E-3
3.693581675E0,1.374999993E-3,2.749999985E-3,1.512499992E-2
3.696087829E0,7.837499678E-2,-1.429999992E-2,1.278750040E-2
3.698594640E0,1.028499976E-1,-8.249999955E-3,4.124999978E-3
3.701102332E0,5.513750017E-2,5.224999972E-3,-3.162499983E-3
3.703609122E0,-1.196249947E-2,7.699999958E-3,-5.637499969E-3
3.706115199E0,-5.472499877E-2,-8.249999955E-4,-7.974999957E-3
3.708622028E0,-7.796250284E-2,4.124999978E-4,-3.162499983E-3
3.711129721E0,-7.672499865E-2,2.749999985E-3,5.362499971E-3
3.713636492E0,-2.914999984E-2,-7.012499962E-3,7.837500423E-3
3.716142569E0,4.537500069E-2,-1.677500084E-2,4.124999978E-3
3.718649413E0,7.837499678E-2,-1.182499994E-2,-3.162499983E-3
3.721157105E0,5.032499880E-2,1.264999993E-2,-6.874999963E-3
3.723663876E0,6.324999966E-3,1.746249944E-2,-7.974999957E-3
3.726169953E0,-1.938750036E-2,7.699999958E-3,-5.637499969E-3
3.728676797E0,-3.643750027E-2,4.124999978E-4,1.787499990E-3
3.731184490E0,-4.262499884E-2,-8.249999955E-4,9.074999951E-3
3.733691256E0,-4.674999975E-3,-7.012499962E-3,1.278750040E-2
3.736197333E0,5.266249925E-2,-1.182499994E-2,5.362499971E-3
3.738704143E0,6.861250103E-2,-8.249999955E-3,-6.874999963E-4
3.741211835E0,2.337500080E-2,5.224999972E-3,-7.974999957E-3
3.743718607E0,-3.162499890E-2,6.462499965E-3,-1.168750040E-2
3.746224684E0,-6.091250107E-2,-7.012499962E-3,-1.292499993E-2
3.748731528E0,-7.067500055E-2,-5.774999969E-3,-6.874999963E-3
3.751239124E0,-5.115000159E-2,3.987499978E-3,2.887499984E-3
3.753745972E0,6.324999966E-3,5.224999972E-3,1.031249948E-2
3.756252097E0,7.356250286E-2,-5.774999969E-3,7.837500423E-3
3.758758864E0,9.184999764E-2,-7.012499962E-3,1.787499990E-3
3.761266571E0,4.537500069E-2,-8.249999955E-4,-1.924999990E-3
3.763773342E0,-1.319999993E-2,-2.062499989E-3,-1.924999990E-3
3.766279496E0,-3.891250119E-2,4.124999978E-4,-5.637499969E-3
3.768786263E0,-5.362499878E-2,2.749999985E-3,5.499999970E-4
3.771293955E0,-4.619999975E-2,1.017499994E-2,7.837500423E-3
3.773800727E0,-2.199999988E-3,-3.299999982E-3,5.362499971E-3
3.776306804E0,5.266249925E-2,-1.553750038E-2,5.499999970E-4
3.778813648E0,6.256250292E-2,-9.349999949E-3,-9.212499484E-3
3.781321340E0,2.213750035E-2,7.699999958E-3,-7.974999957E-3
3.783828111E0,-2.419999987E-2,1.374999993E-2,-1.044999994E-2
3.786334188E0,-4.262499884E-2,6.462499965E-3,-6.874999963E-3
3.788840931E0,-5.362499878E-2,1.649999991E-3,-6.874999963E-4
3.791348624E0,-4.496249929E-2,-4.537499975E-3,7.837500423E-3
3.793855482E0,7.562499959E-3,-1.182499994E-2,1.278750040E-2
3.796361559E0,6.613750011E-2,-1.553750038E-2,9.074999951E-3
3.798868393E0,7.590000331E-2,-3.299999982E-3,2.887499984E-3
3.801376085E0,2.956249937E-2,1.374999993E-2,-3.162499983E-3
3.803882857E0,-1.938750036E-2,6.462499965E-3,-5.637499969E-3
3.806388938E0,-4.372499883E-2,-8.249999955E-3,-5.637499969E-3
3.808895783E0,-5.472499877E-2,-3.299999982E-3,-1.924999990E-3
3.811403398E0,-4.262499884E-2,6.462499965E-3,5.362499971E-3
3.813910246E0,1.608750038E-2,6.462499965E-3,6.599999964E-3
3.816416323E0,7.713750005E-2,-4.537499975E-3,-6.874999963E-4
3.818923167E0,7.590000331E-2,4.124999978E-4,-4.399999976E-3
3.821430860E0,1.732499897E-2,6.462499965E-3,-6.874999963E-3
3.823937631E0,-3.396249935E-2,2.749999985E-3,-5.637499969E-3
3.826443708E0,-5.719999969E-2,-3.299999982E-3,-4.399999976E-3
3.828950557E0,-6.338749826E-2,-2.062499989E-3,1.787499990E-3
3.831458172E0,-4.743750021E-2,4.124999978E-4,1.031249948E-2
3.833965020E0,1.113750041E-2,-1.182499994E-2,1.154999994E-2
3.836471077E0,6.737499684E-2,-1.677500084E-2,6.599999964E-3
3.838977922E0,6.984999776E-2,-1.058750041E-2,1.787499990E-3
3.841485537E0,2.461249940E-2,6.462499965E-3,-6.874999963E-4
3.843992381E0,-1.567500085E-2,1.264999993E-2,-4.399999976E-3
3.846498458E0,-2.791249938E-2,6.462499965E-3,-6.874999963E-3
3.849005302E0,-3.519999981E-2,7.699999958E-3,-5.637499969E-3
3.851512918E0,-2.667500079E-2,8.937500417E-3,-6.874999963E-4
3.854019737E0,1.979999989E-2,-4.537499975E-3,-1.924999990E-3
3.856525814E0,6.132499874E-2,-8.249999955E-3,-5.637499969E-3
3.859032658E0,5.032499880E-2,2.749999985E-3,-4.399999976E-3
3.861540273E0,-4.674999975E-3,5.224999972E-3,-3.162499983E-3
3.864047121E0,-4.496249929E-2,-7.012499962E-3,-6.874999963E-4
3.866553198E0,-6.215000153E-2,-1.801249944E-2,1.787499990E-3
3.869060042E0,-5.967500061E-2,-9.349999949E-3,7.837500423E-3
3.871567658E0,-2.667500079E-2,1.649999991E-3,1.636249945E-2
3.874074506E0,4.537500069E-2,1.649999991E-3,1.278750040E-2
3.876580583E0,9.790000319E-2,-2.062499989E-3,2.887499984E-3
3.879087331E0,7.713750005E-2,1.649999991E-3,-6.874999963E-3
3.881595023E0,1.113750041E-2,1.017499994E-2,-1.168750040E-2
3.884101872E0,-3.519999981E-2,5.224999972E-3,-1.168750040E-2
3.886607949E0,-5.362499878E-2,2.749999985E-3,-1.044999994E-2
3.889114716E0,-5.719999969E-2,7.699999958E-3,1.787499990E-3
3.891622408E0,-3.396249935E-2,5.224999972E-3,5.362499971E-3
3.894129256E0,2.461249940E-2,-1.429999992E-2,7.837500423E-3
3.896635352E0,6.984999776E-2,-2.529999986E-2,1.787499990E-3
3.899142119E0,5.637500063E-2,-1.058750041E-2,5.499999970E-4
3.901649812E0,3.849999979E-3,8.937500417E-3,2.887499984E-3
3.904156660E0,-3.038750030E-2,8.937500417E-3,1.787499990E-3
3.906662737E0,-4.372499883E-2,1.649999991E-3,1.787499990E-3
3.909169581E0,-4.743750021E-2,3.987499978E-3,5.499999970E-4
3.911677196E0,-2.419999987E-2,-2.062499989E-3,2.887499984E-3
3.914184045E0,3.437500075E-2,-9.349999949E-3,-3.162499983E-3
3.916690121E0,7.356250286E-2,-5.774999969E-3,-7.974999957E-3
3.919196889E0,4.784999788E-2,8.937500417E-3,-6.874999963E-3
3.921704600E0,-7.149999961E-3,1.141249947E-2,-5.637499969E-3
3.924211371E0,-4.372499883E-2,1.649999991E-3,-3.162499983E-3
3.926717544E0,-5.115000159E-2,-9.349999949E-3,-1.924999990E-3
3.929224311E0,-4.372499883E-2,-7.012499962E-3,6.599999964E-3
3.931732004E0,-9.624999948E-4,4.124999978E-4,1.278750040E-2
3.934238770E0,6.379999965E-2,-4.537499975E-3,1.154999994E-2
3.936744924E0,9.308750182E-2,-8.249999955E-4,4.124999978E-3
3.939251691E0,5.032499880E-2,5.224999972E-3,-4.399999976E-3
3.941759398E0,-1.814999990E-2,5.224999972E-3,-6.874999963E-3
3.944266170E0,-5.843750015E-2,-4.537499975E-3,-1.168750040E-2
3.946772323E0,-7.191249728E-2,-2.062499989E-3,-9.212499484E-3
3.949279091E0,-6.572499871E-2,7.699999958E-3,5.499999970E-4
3.951786783E0,-2.419999987E-2,6.462499965E-3,2.887499984E-3
3.954293554E0,4.537500069E-2,-1.182499994E-2,1.787499990E-3
3.956799477E0,8.084999770E-2,-1.677500084E-2,-3.162499983E-3
3.959306475E0,5.279999971E-2,-2.062499989E-3,5.499999970E-4
3.961814168E0,5.087499972E-3,6.462499965E-3,4.124999978E-3
3.964321016E0,-1.938750036E-2,1.649999991E-3,6.599999964E-3
3.966827088E0,-2.914999984E-2,2.749999985E-3,7.837500423E-3
3.969333855E0,-3.519999981E-2,8.937500417E-3,6.599999964E-3
3.971841547E0,-8.387500420E-3,-8.249999955E-4,4.124999978E-3
3.974348395E0,4.661250114E-2,-1.058750041E-2,-6.874999963E-3
3.976854472E0,6.008749828E-2,-5.774999969E-3,-1.044999994E-2
3.979361235E0,1.484999992E-2,7.699999958E-3,-1.044999994E-2
3.981868927E0,-4.138749838E-2,1.017499994E-2,-1.044999994E-2
3.984375789E0,-6.324999779E-2,-2.062499989E-3,-8.112499490E-3
3.986881866E0,-6.215000153E-2,-5.774999969E-3,-3.162499983E-3
3.989388633E0,-4.372499883E-2,-8.249999955E-4,9.074999951E-3
3.991896326E0,1.361249946E-2,-4.537499975E-3,1.636249945E-2
3.994403174E0,8.456250280E-2,-1.182499994E-2,1.388750039E-2
3.996909251E0,9.790000319E-2,-8.249999955E-3,9.074999951E-3
3.999416018E0,4.413750023E-2,-8.249999955E-4,4.124999978E-3
4.001923710E0,-1.691249944E-2,6.462499965E-3,-6.874999963E-4
4.004430558E0,-4.619999975E-2,2.749999985E-3,-6.874999963E-3
4.006936635E0,-5.719999969E-2,5.224999972E-3,-5.637499969E-3
4.009443417E0,-4.743750021E-2,1.017499994E-2,-4.399999976E-3
4.011951110E0,-3.437499981E-3,2.749999985E-3,-3.162499983E-3
4.014457905E0,5.279999971E-2,-7.012499962E-3,-9.212499484E-3
4.016964059E0,5.884999782E-2,-4.537499975E-3,-1.292499993E-2
4.019470826E0,1.732499897E-2,8.937500417E-3,-5.637499969E-3
4.021978532E0,-2.296249941E-2,1.649999991E-3,5.499999970E-4
4.024485304E0,-3.643750027E-2,-4.537499975E-3,6.599999964E-3
4.026991463E0,-4.015000165E-2,-7.012499962E-3,9.074999951E-3
4.029498230E0,-3.038750030E-2,-5.774999969E-3,1.636249945E-2
4.032005922E0,1.732499897E-2,-1.058750041E-2,1.278750040E-2
4.034512693E0,6.737499684E-2,-1.058750041E-2,5.499999970E-4
4.037018847E0,6.379999965E-2,1.649999991E-3,-5.637499969E-3
4.039525614E0,1.003750041E-2,1.622499898E-2,-1.044999994E-2
4.042033307E0,-3.519999981E-2,8.937500417E-3,-1.044999994E-2
4.044540078E0,-5.472499877E-2,-4.537499975E-3,-1.044999994E-2
4.047046001E0,-5.472499877E-2,3.987499978E-3,-8.112499490E-3
4.049552999E0,-3.038750030E-2,6.462499965E-3,2.887499984E-3
4.052060691E0,3.437500075E-2,2.749999985E-3,5.362499971E-3
4.054567463E0,8.813749999E-2,-5.774999969E-3,4.124999978E-3
4.057073386E0,7.356250286E-2,-5.774999969E-3,4.124999978E-3
4.059580389E0,7.562499959E-3,-5.774999969E-3,4.124999978E-3
4.062088081E0,-4.372499883E-2,-1.058750041E-2,5.362499971E-3
4.064594852E0,-6.215000153E-2,-7.012499962E-3,1.787499990E-3
4.067100775E0,-5.967500061E-2,1.649999991E-3,5.499999970E-4
4.069607773E0,-3.643750027E-2,5.224999972E-3,2.887499984E-3
4.072115447E0,1.732499897E-2,-7.012499962E-3,-1.924999990E-3
4.074622295E0,6.132499874E-2,-1.058750041E-2,-6.874999963E-3
4.077128141E0,5.156249925E-2,-2.062499989E-3,-9.212499484E-3
4.079635139E0,1.003750041E-2,1.017499994E-2,-3.162499983E-3
4.082142831E0,-1.319999993E-2,1.251249947E-2,-1.924999990E-3
4.084649603E0,-2.048750035E-2,7.699999958E-3,-6.874999963E-4
4.087155526E0,-2.419999987E-2,5.224999972E-3,4.124999978E-3
4.089662524E0,-5.912499968E-3,-8.249999955E-4,6.599999964E-3
4.092170216E0,4.056249931E-2,-1.306249946E-2,5.362499971E-3
4.094676987E0,6.489999592E-2,-1.182499994E-2,-3.162499983E-3
4.097182900E0,3.079999983E-2,4.124999978E-4,-5.637499969E-3
4.099689898E0,-3.396249935E-2,3.987499978E-3,-4.399999976E-3
4.102197581E0,-6.572499871E-2,-5.774999969E-3,-3.162499983E-3
4.104704352E0,-6.943749636E-2,-1.182499994E-2,-3.162499983E-3
4.107210506E0,-5.596249923E-2,-2.062499989E-3,5.499999970E-4
4.109717264E0,-7.149999961E-3,3.987499978E-3,5.362499971E-3
4.112224956E0,6.737499684E-2,4.124999978E-4,1.787499990E-3
4.114731732E0,1.016125008E-1,4.124999978E-4,-1.924999990E-3
4.117237886E0,6.132499874E-2,1.017499994E-2,-3.162499983E-3
4.119744654E0,-2.199999988E-3,6.462499965E-3,1.787499990E-3
4.122252115E0,-3.643750027E-2,-4.537499975E-3,5.499999970E-4
4.124759117E0,-4.743750021E-2,-3.299999982E-3,1.787499990E-3
4.127265040E0,-4.619999975E-2,2.749999985E-3,5.362499971E-3
4.129772038E0,-1.072499994E-2,-8.249999955E-4,4.124999978E-3
4.132279500E0,4.413750023E-2,-1.429999992E-2,5.499999970E-4
4.134786502E0,6.008749828E-2,-1.182499994E-2,-8.112499490E-3
4.137292641E0,1.979999989E-2,3.987499978E-3,-5.637499969E-3
4.139799408E0,-2.791249938E-2,1.141249947E-2,-3.162499983E-3
4.142307100E0,-4.496249929E-2,5.224999972E-3,-3.162499983E-3
4.144813871E0,-4.372499883E-2,2.749999985E-3,-3.162499983E-3
4.147319804E0,-3.038750030E-2,2.749999985E-3,1.787499990E-3
4.149826802E0,1.237499993E-2,-5.774999969E-3,6.599999964E-3
4.152334500E0,6.489999592E-2,-9.349999949E-3,2.887499984E-3
4.154841271E0,7.108750194E-2,-4.537499975E-3,5.499999970E-4
4.157347194E0,2.337500080E-2,2.749999985E-3,4.124999978E-3
4.159854177E0,-3.396249935E-2,-2.062499989E-3,2.887499984E-3
4.162361869E0,-5.224999785E-2,-1.058750041E-2,5.499999970E-4
4.164868641E0,-5.115000159E-2,-7.012499962E-3,5.499999970E-4
4.167374564E0,-2.914999984E-2,1.141249947E-2,1.787499990E-3
4.169881331E0,2.832499892E-2,7.699999958E-3,1.787499990E-3
4.172389254E0,8.084999770E-2,1.649999991E-3,-6.874999963E-3
4.174896025E0,7.356250286E-2,1.649999991E-3,-1.044999994E-2
4.177401948E0,7.562499959E-3,4.124999978E-4,-9.212499484E-3
4.179908946E0,-4.743750021E-2,-5.774999969E-3,-1.924999990E-3
4.182416639E0,-6.696250290E-2,-7.012499962E-3,2.887499984E-3
4.184923410E0,-6.448750198E-2,1.649999991E-3,5.362499971E-3
4.187429319E0,-4.138749838E-2,1.649999991E-3,1.154999994E-2
4.189936317E0,2.103750035E-2,-1.058750041E-2,7.837500423E-3
4.192444009E0,7.479999959E-2,-2.282499894E-2,2.887499984E-3
4.194950771E0,6.737499684E-2,-1.182499994E-2,-1.924999990E-3
4.197456694E0,1.979999989E-2,8.937500417E-3,1.787499990E-3
4.199963688E0,-1.814999990E-2,1.374999993E-2,2.887499984E-3
4.202471149E0,-2.914999984E-2,1.251249947E-2,-3.162499983E-3
4.204978137E0,-3.396249935E-2,1.251249947E-2,-3.162499983E-3
4.207484060E0,-1.814999990E-2,7.699999958E-3,-1.924999990E-3
4.209991052E0,3.079999983E-2,-8.249999955E-3,-4.399999976E-3
4.212498514E0,6.737499684E-2,-9.349999949E-3,-9.212499484E-3
4.215005516E0,3.932499886E-2,-2.062499989E-3,-5.637499969E-3
4.217511439E0,-2.543750033E-2,6.462499965E-3,5.499999970E-4
4.220018437E0,-6.572499871E-2,-7.012499962E-3,2.887499984E-3
4.222525898E0,-6.943749636E-2,-1.429999992E-2,5.362499971E-3
4.225032900E0,-5.224999785E-2,-7.012499962E-3,9.074999951E-3
4.227538824E0,-4.674999975E-3,-2.062499989E-3,1.512499992E-2
4.230045822E0,6.489999592E-2,-2.062499989E-3,9.074999951E-3
4.232553283E0,1.016125008E-1,-8.249999955E-4,-1.924999990E-3
4.235060270E0,6.489999592E-2,3.987499978E-3,-5.637499969E-3
4.237566193E0,-7.149999961E-3,6.462499965E-3,-5.637499969E-3
4.240072960E0,-4.619999975E-2,5.224999972E-3,-5.637499969E-3
4.242580663E0,-5.596249923E-2,5.224999972E-3,-6.874999963E-3
4.245087665E0,-4.743750021E-2,1.017499994E-2,-4.399999976E-3
4.247593583E0,-9.624999948E-3,2.749999985E-3,5.499999970E-4
4.250100581E0,4.661250114E-2,-1.058750041E-2,-6.874999963E-4
4.252608061E0,6.613750011E-2,-1.553750038E-2,-3.162499983E-3
4.255115063E0,2.832499892E-2,-5.774999969E-3,1.787499990E-3
4.257620986E0,-2.048750035E-2,-8.249999955E-4,6.599999964E-3
4.260127754E0,-4.496249929E-2,-4.537499975E-3,9.074999951E-3
4.262635446E0,-4.743750021E-2,-8.249999955E-4,6.599999964E-3
4.265142448E0,-3.767500073E-2,1.649999991E-3,5.362499971E-3
4.267648371E0,2.612499986E-3,4.124999978E-4,5.499999970E-4
4.270155138E0,6.379999965E-2,-5.774999969E-3,-5.637499969E-3
4.272662831E0,7.590000331E-2,1.649999991E-3,-1.168750040E-2
4.275169833E0,2.584999986E-2,1.141249947E-2,-1.044999994E-2
4.277675751E0,-3.038750030E-2,5.224999972E-3,-6.874999963E-3
4.280182749E0,-4.991250113E-2,-4.537499975E-3,-4.399999976E-3
4.282690408E0,-4.991250113E-2,-3.299999982E-3,2.887499984E-3
4.285197179E0,-2.543750033E-2,5.224999972E-3,7.837500423E-3
4.287703102E0,2.832499892E-2,4.124999978E-4,1.278750040E-2
4.290210100E0,8.456250280E-2,-5.774999969E-3,4.124999978E-3
4.292717562E0,7.590000331E-2,-8.249999955E-3,2.887499984E-3
4.295224564E0,1.127499994E-2,-2.062499989E-3,1.787499990E-3
4.297730487E0,-4.991250113E-2,-2.062499989E-3,-1.924999990E-3
4.300237254E0,-6.696250290E-2,4.124999978E-4,-8.112499490E-3
4.302744947E0,-6.448750198E-2,7.699999958E-3,-6.874999963E-3
4.305251949E0,-4.138749838E-2,1.017499994E-2,-6.874999963E-4
4.307757872E0,1.608750038E-2,-4.537499975E-3,-1.924999990E-3
4.310264870E0,6.861250103E-2,-1.677500084E-2,-5.637499969E-3
4.312772335E0,6.379999965E-2,-8.249999955E-3,-3.162499983E-3
4.315279337E0,1.732499897E-2,3.987499978E-3,6.599999964E-3
4.317785256E0,-1.319999993E-2,6.462499965E-3,9.074999951E-3
4.320292254E0,-2.296249941E-2,2.749999985E-3,9.074999951E-3
4.322799711E0,-2.296249941E-2,5.224999972E-3,6.599999964E-3
4.325306713E0,-8.387500420E-3,4.124999978E-4,2.887499984E-3
4.327812636E0,3.561250120E-2,-7.012499962E-3,-4.399999976E-3
4.330319619E0,6.379999965E-2,-3.299999982E-3,-1.168750040E-2
4.332827080E0,2.708750032E-2,7.699999958E-3,-1.416249946E-2
4.335334082E0,-3.767500073E-2,7.699999958E-3,-8.112499490E-3
4.337840006E0,-7.424999774E-2,-5.774999969E-3,-3.162499983E-3
4.340346773E0,-7.424999774E-2,-9.349999949E-3,-1.924999990E-3
4.342854465E0,-5.224999785E-2,-5.774999969E-3,2.887499984E-3
4.345361467E0,2.612499986E-3,4.124999978E-4,1.154999994E-2
4.347867390E0,7.590000331E-2,-3.299999982E-3,1.278750040E-2
4.350374157E0,1.076624990E-1,-5.774999969E-3,4.124999978E-3
4.352881850E0,6.256250292E-2,-8.249999955E-4,5.362499971E-3
4.355388839E0,-5.912499968E-3,1.649999991E-3,5.362499971E-3
4.357894762E0,-4.248749837E-2,-2.062499989E-3,5.499999970E-4
4.360401519E0,-4.867500067E-2,1.649999991E-3,-5.637499969E-3
4.362909211E0,-4.138749838E-2,1.374999993E-2,-6.874999963E-3
4.365416213E0,-7.149999961E-3,6.462499965E-3,-4.399999976E-3
4.367922136E0,4.056249931E-2,-7.012499962E-3,-1.044999994E-2
4.370428904E0,5.279999971E-2,-8.249999955E-3,-1.292499993E-2
4.372936596E0,1.237499993E-2,4.124999978E-4,-8.112499490E-3
4.375443598E0,-3.272499889E-2,4.124999978E-4,2.887499984E-3
4.377949521E0,-4.619999975E-2,-2.062499989E-3,9.074999951E-3
4.380456288E0,-3.891250119E-2,-2.062499989E-3,9.074999951E-3
4.382964014E0,-1.938750036E-2,4.124999978E-4,1.154999994E-2
4.385471016E0,2.213750035E-2,-9.349999949E-3,9.074999951E-3
4.387976939E0,7.108750194E-2,-9.349999949E-3,1.787499990E-3
4.390483706E0,6.613750011E-2,-3.299999982E-3,-4.399999976E-3
4.392991398E0,7.562499959E-3,5.224999972E-3,-3.162499983E-3
4.395498400E0,-4.248749837E-2,6.462499965E-3,-3.162499983E-3
4.398004329E0,-5.843750015E-2,1.649999991E-3,-8.112499490E-3
4.400511097E0,-4.619999975E-2,8.937500417E-3,-8.112499490E-3
4.403018789E0,-1.443750039E-2,1.374999993E-2,-5.637499969E-3
4.405525800E0,4.661250114E-2,5.224999972E-3,-3.162499983E-3
4.408031723E0,8.937499672E-2,-3.299999982E-3,-3.162499983E-3
4.410538490E0,6.256250292E-2,-2.062499989E-3,-3.162499983E-3
4.413046183E0,-7.149999961E-3,-7.012499962E-3,6.599999964E-3
4.415553180E0,-5.843750015E-2,-1.306249946E-2,1.031249948E-2
4.418059103E0,-6.943749636E-2,-1.182499994E-2,7.837500423E-3
4.420565701E0,-6.215000153E-2,4.124999978E-4,5.362499971E-3
4.423072246E0,-2.791249938E-2,4.124999978E-4,5.362499971E-3
4.425580331E0,3.327500075E-2,-9.349999949E-3,-3.162499983E-3
4.428086487E0,7.479999959E-2,-1.058750041E-2,-1.044999994E-2
4.430593255E0,5.156249925E-2,5.224999972E-3,-1.044999994E-2
4.433100947E0,1.374999993E-3,1.498750038E-2,-5.637499969E-3
4.435607718E0,-2.296249941E-2,1.017499994E-2,1.787499990E-3
4.438113872E0,-2.543750033E-2,8.937500417E-3,5.499999970E-4
4.440620625E0,-1.938750036E-2,8.937500417E-3,2.887499984E-3
4.443128318E0,6.324999966E-3,-4.537499975E-3,5.362499971E-3
4.445635089E0,5.279999971E-2,-1.429999992E-2,5.499999970E-4
4.448141252E0,6.737499684E-2,-1.182499994E-2,-1.924999990E-3
4.450648250E0,1.361249946E-2,-4.537499975E-3,5.499999970E-4
4.453155711E0,-5.224999785E-2,-8.249999955E-4,2.887499984E-3
4.455662728E0,-8.043749630E-2,-9.349999949E-3,1.787499990E-3
4.458168651E0,-7.191249728E-2,-8.249999955E-3,-3.162499983E-3
4.460675649E0,-4.124999791E-2,2.749999985E-3,-6.874999963E-4
4.463183130E0,2.103750035E-2,3.987499978E-3,5.499999970E-4
4.465690132E0,8.579999954E-2,2.749999985E-3,-4.399999976E-3
4.468195978E0,9.556250274E-2,1.512499992E-3,-4.399999976E-3
4.470702822E0,3.808749840E-2,3.987499978E-3,-6.874999963E-4
4.473210514E0,-2.296249941E-2,4.124999978E-4,5.362499971E-3
4.475717516E0,-4.496249929E-2,-4.537499975E-3,2.887499984E-3
4.478223363E0,-4.124999791E-2,2.749999985E-3,4.124999978E-3
4.480730207E0,-2.667500079E-2,7.699999958E-3,4.124999978E-3
4.483237899E0,1.732499897E-2,-3.299999982E-3,-6.874999963E-4
4.485744901E0,5.637500063E-2,-1.306249946E-2,-8.112499490E-3
4.488250805E0,4.537500069E-2,-5.774999969E-3,-1.292499993E-2
4.490757572E0,-8.387500420E-3,4.124999978E-4,-3.162499983E-3
4.493265265E0,-5.115000159E-2,1.512499992E-3,5.499999970E-4
4.495772267E0,-5.472499877E-2,-8.249999955E-4,5.499999970E-4
4.498278195E0,-4.496249929E-2,6.462499965E-3,5.499999970E-4
4.500784962E0,-1.567500085E-2,2.749999985E-3,6.599999964E-3
4.503292654E0,4.303750023E-2,-5.774999969E-3,4.124999978E-3
4.505799426E0,8.579999954E-2,-9.349999949E-3,-3.162499983E-3
4.508305588E0,6.379999965E-2,-2.062499989E-3,-1.924999990E-3
4.510812356E0,-2.199999988E-3,5.224999972E-3,1.787499990E-3
4.513320048E0,-4.248749837E-2,-5.774999969E-3,5.362499971E-3
4.515827050E0,-5.224999785E-2,-4.537499975E-3,1.787499990E-3
4.518332973E0,-4.124999791E-2,6.462499965E-3,-1.924999990E-3
4.520839740E0,-9.624999948E-4,1.017499994E-2,-6.874999963E-4
4.523347433E0,5.761250108E-2,4.124999978E-4,-4.399999976E-3
4.525854435E0,8.084999770E-2,-4.537499975E-3,-6.874999963E-3
4.528360358E0,3.327500075E-2,4.124999978E-4,-4.399999976E-3
4.530867135E0,-3.148749843E-2,4.124999978E-4,5.499999970E-4
4.533374827E0,-6.324999779E-2,-4.537499975E-3,1.787499990E-3
4.535881598E0,-6.215000153E-2,-2.062499989E-3,5.499999970E-4
4.538387752E0,-4.248749837E-2,6.462499965E-3,4.124999978E-3
4.540894520E0,1.374999993E-3,-7.012499962E-3,7.837500423E-3
4.543402231E0,5.637500063E-2,-1.801249944E-2,2.887499984E-3
4.545909002E0,7.108750194E-2,-1.677500084E-2,-1.924999990E-3
4.548415137E0,3.079999983E-2,2.749999985E-3,5.499999970E-4
4.550921904E0,-1.443750039E-2,1.017499994E-2,5.362499971E-3
4.553429597E0,-3.038750030E-2,7.699999958E-3,1.787499990E-3
4.555936377E0,-2.791249938E-2,1.017499994E-2,-3.162499983E-3
4.558442531E0,-1.691249944E-2,1.141249947E-2,-5.637499969E-3
4.560949298E0,2.227500081E-2,4.124999978E-4,-6.874999963E-3
4.563456990E0,6.379999965E-2,-3.299999982E-3,-1.044999994E-2
4.565963761E0,5.156249925E-2,1.512499992E-3,-1.168750040E-2
4.568469915E0,-1.072499994E-2,2.749999985E-3,-6.874999963E-4
4.570976683E0,-6.572499871E-2,-8.249999955E-3,6.599999964E-3
4.573484375E0,-7.919999957E-2,-1.924999990E-2,9.074999951E-3
4.575991146E0,-5.967500061E-2,-1.182499994E-2,7.837500423E-3
4.578497300E0,-1.443750039E-2,-2.062499989E-3,9.074999951E-3
4.581004086E0,5.279999971E-2,1.512499992E-3,7.837500423E-3
4.583511778E0,1.003749967E-1,-3.299999982E-3,-6.874999963E-4
4.586018560E0,7.356250286E-2,3.987499978E-3,-3.162499983E-3
4.588524714E0,5.087499972E-3,7.699999958E-3,-3.162499983E-3
4.591031462E0,-4.015000165E-2,-8.249999955E-4,-6.874999963E-4
4.593539154E0,-4.867500067E-2,5.224999972E-3,-6.874999963E-3
4.596045930E0,-3.767500073E-2,1.746249944E-2,-8.112499490E-3
4.598552084E0,-8.387500420E-3,1.017499994E-2,-3.162499983E-3
4.601058851E0,3.684999794E-2,-5.774999969E-3,-5.637499969E-3
4.603566544E0,5.884999782E-2,-1.677500084E-2,-4.399999976E-3
4.606073315E0,2.103750035E-2,-1.182499994E-2,5.499999970E-4
4.608579392E0,-3.272499889E-2,-7.012499962E-3,9.074999951E-3
4.611086236E0,-5.348749831E-2,-7.012499962E-3,1.278750040E-2
4.613593928E0,-4.743750021E-2,-2.062499989E-3,6.599999964E-3
4.616100700E0,-2.667500079E-2,8.937500417E-3,4.124999978E-3
4.618606853E0,1.237499993E-2,-8.249999955E-4,5.499999970E-4
4.621113616E0,6.379999965E-2,-4.537499975E-3,-6.874999963E-3
4.623621308E0,6.984999776E-2,-8.249999955E-4,-1.416249946E-2
4.626128310E0,1.856249943E-2,8.937500417E-3,-8.112499490E-3
4.628634156E0,-3.643750027E-2,5.224999972E-3,-6.874999963E-4
4.631141000E0,-5.472499877E-2,4.124999978E-4,5.499999970E-4
4.633648693E0,-4.248749837E-2,4.124999978E-4,-6.874999963E-4
4.636155685E0,-9.487500414E-3,8.937500417E-3,5.499999970E-4
4.638661608E0,4.413750023E-2,1.512499992E-3,2.887499984E-3
4.641168375E0,8.579999954E-2,-8.249999955E-3,5.499999970E-4
4.643676067E0,6.379999965E-2,-5.774999969E-3,-1.924999990E-3
4.646183064E0,-7.149999961E-3,-5.774999969E-3,4.124999978E-3
4.648688910E0,-6.696250290E-2,-8.249999955E-3,6.599999964E-3
4.651195755E0,-7.796250284E-2,-4.537499975E-3,1.787499990E-3
4.653703447E0,-6.215000153E-2,6.462499965E-3,-3.162499983E-3
4.656210218E0,-2.419999987E-2,7.699999958E-3,-3.162499983E-3
4.658716372E0,3.327500075E-2,-4.537499975E-3,-6.874999963E-3
4.661223139E0,7.479999959E-2,-1.058750041E-2,-9.212499484E-3
4.663730832E0,5.637500063E-2,4.124999978E-4,-4.399999976E-3
4.666237603E0,6.324999966E-3,1.017499994E-2,2.887499984E-3
4.668743757E0,-2.419999987E-2,3.987499978E-3,1.154999994E-2
4.671250519E0,-2.667500079E-2,5.224999972E-3,7.837500423E-3
4.673758211E0,-1.691249944E-2,8.937500417E-3,5.362499971E-3
4.676264968E0,1.237499993E-2,-8.249999955E-4,2.887499984E-3
4.678771122E0,5.403750017E-2,-1.058750041E-2,-4.399999976E-3
4.681277890E0,6.008749828E-2,-3.299999982E-3,-1.044999994E-2
4.683785548E0,8.799999952E-3,1.512499992E-3,-8.112499490E-3
4.686292319E0,-6.091250107E-2,1.512499992E-3,-1.924999990E-3
4.688798478E0,-8.772499859E-2,-8.249999955E-3,-1.924999990E-3
4.691305245E0,-7.191249728E-2,-8.249999955E-3,-1.924999990E-3
4.693812937E0,-3.038750030E-2,3.987499978E-3,5.499999970E-4
4.696319709E0,3.437500075E-2,1.512499992E-3,4.124999978E-3
4.698825863E0,9.308750182E-2,-7.012499962E-3,2.887499984E-3
4.701332630E0,9.184999764E-2,-7.012499962E-3,1.787499990E-3
4.703840322E0,3.203750029E-2,-8.249999955E-4,6.599999964E-3
4.706347093E0,-3.038750030E-2,-8.249999955E-4,9.074999951E-3
4.708853247E0,-4.867500067E-2,4.124999978E-4,5.362499971E-3
4.711360014E0,-3.767500073E-2,1.017499994E-2,-3.162499983E-3
4.713867707E0,-1.691249944E-2,1.374999993E-2,-8.112499490E-3
4.716374459E0,2.337500080E-2,1.512499992E-3,-1.292499993E-2
4.718880536E0,5.156249925E-2,-7.012499962E-3,-1.663750038E-2
4.721387380E0,3.203750029E-2,-8.249999955E-4,-1.416249946E-2
4.723895057E0,-1.938750036E-2,2.749999985E-3,-6.874999963E-4
4.726401829E0,-5.348749831E-2,-5.774999969E-3,6.599999964E-3
4.728907892E0,-5.472499877E-2,-5.774999969E-3,1.031249948E-2
4.731414736E0,-3.767500073E-2,4.124999978E-4,9.074999951E-3
4.733922428E0,2.749999985E-4,-4.537499975E-3,9.074999951E-3
4.736429180E0,5.637500063E-2,-9.349999949E-3,4.124999978E-3
4.738935257E0,8.332499862E-2,-8.249999955E-3,-3.162499983E-3
4.741442101E0,4.179999977E-2,5.224999972E-3,-3.162499983E-3
4.743949794E0,-2.296249941E-2,7.699999958E-3,-1.924999990E-3
4.746456565E0,-5.596249923E-2,-8.249999955E-4,-1.924999990E-3
4.748962642E0,-5.348749831E-2,5.224999972E-3,-8.112499490E-3
4.751469486E0,-2.791249938E-2,1.622499898E-2,-9.212499484E-3
4.753977178E0,2.337500080E-2,1.251249947E-2,-5.637499969E-3
4.756483950E0,7.590000331E-2,-2.062499989E-3,-6.874999963E-3
4.758990016E0,7.837499678E-2,-8.249999955E-3,-4.399999976E-3
4.761496861E0,1.608750038E-2,-7.012499962E-3,1.787499990E-3
4.764004553E0,-4.991250113E-2,-9.349999949E-3,1.154999994E-2
4.766511358E0,-7.067500055E-2,-1.429999992E-2,1.278750040E-2
4.769017512E0,-5.843750015E-2,-8.249999955E-4,9.074999951E-3
4.771524259E0,-2.914999984E-2,5.224999972E-3,5.362499971E-3
4.774031952E0,1.732499897E-2,-4.537499975E-3,-1.924999990E-3
4.776538723E0,6.132499874E-2,-1.429999992E-2,-9.212499484E-3
4.779044877E0,5.513750017E-2,-7.012499962E-3,-1.168750040E-2
4.781551644E0,7.562499959E-3,1.141249947E-2,-4.399999976E-3
4.784059336E0,-2.543750033E-2,1.498750038E-2,2.887499984E-3
4.786566107E0,-2.791249938E-2,1.141249947E-2,1.787499990E-3
4.789072261E0,-1.319999993E-2,1.374999993E-2,-4.399999976E-3
4.791579029E0,1.237499993E-2,2.749999985E-3,-1.924999990E-3
4.794086721E0,5.279999971E-2,-1.058750041E-2,-6.874999963E-4
4.796593723E0,6.737499684E-2,-9.349999949E-3,-3.162499983E-3
4.799099569E0,2.461249940E-2,-3.299999982E-3,-6.874999963E-4
4.801606413E0,-4.496249929E-2,-5.774999969E-3,6.599999964E-3
4.804114106E0,-8.524999768E-2,-1.553750038E-2,7.837500423E-3
4.806621108E0,-8.401250094E-2,-1.553750038E-2,4.124999978E-3
4.809127027E0,-4.743750021E-2,2.749999985E-3,-1.924999990E-3
4.811633794E0,1.856249943E-2,7.699999958E-3,-3.162499983E-3
4.814141486E0,8.332499862E-2,5.224999972E-3,-5.637499969E-3
4.816648488E0,9.432499856E-2,4.124999978E-4,-8.112499490E-3
4.819154324E0,4.056249931E-2,7.699999958E-3,-1.924999990E-3
4.821661168E0,-2.048750035E-2,4.124999978E-4,6.599999964E-3
4.824168832E0,-4.248749837E-2,-8.249999955E-3,9.074999951E-3
4.826675834E0,-3.519999981E-2,5.224999972E-3,4.124999978E-3
4.829181757E0,-1.443750039E-2,1.141249947E-2,2.887499984E-3
4.831688524E0,2.227500081E-2,4.124999978E-4,-6.874999963E-4
4.834196216E0,5.403750017E-2,-1.429999992E-2,-9.212499484E-3
4.836702988E0,3.808749840E-2,-1.182499994E-2,-6.874999963E-3
4.839209142E0,-1.814999990E-2,-2.062499989E-3,-3.162499983E-3
4.841715909E0,-5.596249923E-2,2.749999985E-3,4.124999978E-3
4.844223601E0,-5.596249923E-2,1.512499992E-3,4.124999978E-3
4.846730372E0,-3.767500073E-2,1.017499994E-2,-6.874999963E-4
4.849236531E0,-2.199999988E-3,5.224999972E-3,-1.924999990E-3
4.851743298E0,4.784999788E-2,-1.058750041E-2,-3.162499983E-3
4.854250991E0,7.713750005E-2,-1.058750041E-2,-4.399999976E-3
4.856757762E0,4.661250114E-2,-3.299999982E-3,-6.874999963E-4
4.859263916E0,-1.567500085E-2,5.224999972E-3,9.074999951E-3
4.861770697E0,-5.348749831E-2,-2.062499989E-3,7.837500423E-3
4.864278389E0,-4.743750021E-2,-3.299999982E-3,5.499999970E-4
4.866785161E0,-2.296249941E-2,1.017499994E-2,-6.874999963E-3
4.869291314E0,2.337500080E-2,1.017499994E-2,-8.112499490E-3
4.871798082E0,7.479999959E-2,2.749999985E-3,-9.212499484E-3
4.874305774E0,7.590000331E-2,1.512499992E-3,-1.168750040E-2
4.876812545E0,1.484999992E-2,2.749999985E-3,-5.637499969E-3
4.879318699E0,-5.348749831E-2,-5.774999969E-3,2.887499984E-3
4.881825466E0,-8.043749630E-2,-1.306249946E-2,5.362499971E-3
4.884333159E0,-6.696250290E-2,-3.299999982E-3,5.362499971E-3
4.886839930E0,-2.914999984E-2,5.224999972E-3,1.787499990E-3
4.889346084E0,2.227500081E-2,-4.537499975E-3,1.787499990E-3
4.891852851E0,6.861250103E-2,-1.553750038E-2,-3.162499983E-3
4.894360557E0,6.613750011E-2,-1.058750041E-2,-1.924999990E-3
4.896867329E0,1.608750038E-2,6.462499965E-3,2.887499984E-3
4.899373410E0,-2.419999987E-2,7.699999958E-3,6.599999964E-3
4.901880255E0,-3.272499889E-2,8.937500417E-3,4.124999978E-3
4.904387957E0,-2.296249941E-2,1.746249944E-2,-4.399999976E-3
4.906894728E0,3.849999979E-3,1.017499994E-2,-8.112499490E-3
4.909400805E0,4.784999788E-2,-2.062499989E-3,-9.212499484E-3
4.911907649E0,6.984999776E-2,-4.537499975E-3,-1.168750040E-2
4.914415342E0,2.832499892E-2,-2.062499989E-3,-6.874999963E-3
4.916922344E0,-4.248749837E-2,-2.062499989E-3,1.787499990E-3
4.919428190E0,-8.524999768E-2,-9.349999949E-3,1.154999994E-2
4.921935034E0,-7.919999957E-2,-1.429999992E-2,9.074999951E-3
4.924442726E0,-4.124999791E-2,-2.062499989E-3,6.599999964E-3
4.926949497E0,1.732499897E-2,4.124999978E-4,6.599999964E-3
4.929455584E0,7.837499678E-2,-3.299999982E-3,2.887499984E-3
4.931962429E0,9.184999764E-2,-8.249999955E-3,-6.874999963E-4
4.934470106E0,3.808749840E-2,1.512499992E-3,5.499999970E-4
4.936976877E0,-2.667500079E-2,6.462499965E-3,1.787499990E-3
4.939483031E0,-4.991250113E-2,5.224999972E-3,1.787499990E-3
4.941989812E0,-3.396249935E-2,1.498750038E-2,-6.874999963E-3
4.944497504E0,-8.387500420E-3,2.117500082E-2,-1.044999994E-2
4.947004276E0,2.832499892E-2,5.224999972E-3,-1.044999994E-2
4.949510430E0,5.761250108E-2,-1.058750041E-2,-9.212499484E-3
4.952017197E0,4.179999977E-2,-9.349999949E-3,-4.399999976E-3
4.954524889E0,-1.196249947E-2,-3.299999982E-3,9.074999951E-3
4.957031660E0,-5.472499877E-2,-7.012499962E-3,1.759999990E-2
4.959537814E0,-6.201250106E-2,-9.349999949E-3,1.636249945E-2
4.962044581E0,-4.248749837E-2,-8.249999955E-4,1.154999994E-2
